acc_x,acc_y,acc_z,gyro_x,gyro_y,gyro_z,timestamp,timestamp_computer,package
1205.38330078125,62.56103515625,238.28125,283.21875,-57.0625,-60.046875,382442.0,1728493596855,1892
1225.28076171875,60.791015625,253.72314453125,309.578125,-63.0,-39.734375,382446.46,1728493596856,1892
1236.6943359375,44.12841796875,291.1376953125,331.265625,-71.765625,-17.21875,382450.92,1728493596856,1892
1230.28564453125,50.96435546875,360.53466796875,346.859375,-79.5,7.546875,382455.38,1728493596856,1892
1203.2470703125,54.931640625,446.8994140625,361.859375,-86.625,27.921875,382459.84,1728493596856,1892
1174.1943359375,27.03857421875,527.587890625,367.46875,-90.15625,43.875,382464.3,1728493596857,1892
1167.724609375,39.9169921875,598.69384765625,353.828125,-82.53125,57.234375,382468.76,1728493596857,1892
1174.560546875,55.419921875,674.072265625,330.609375,-66.578125,71.0625,382473.22,1728493596857,1892
1179.5654296875,96.00830078125,739.31884765625,308.3125,-49.046875,87.015625,382477.68,1728493596857,1892
1180.11474609375,177.79541015625,791.6259765625,278.671875,-37.140625,103.609375,382482.14,1728493596858,1892
1162.7197265625,106.689453125,842.6513671875,249.28125,-33.625,119.875,382486.6,1728493596858,1892
1110.16845703125,-25.08544921875,877.685546875,227.25,-37.328125,137.546875,382491.06,1728493596858,1892
1036.56005859375,-91.552734375,876.953125,202.765625,-46.03125,153.421875,382495.52,1728493596858,1892
954.77294921875,-122.86376953125,846.923828125,163.859375,-52.75,162.5,382499.98,1728493596859,1892
880.31005859375,-146.240234375,818.7255859375,125.3125,-49.359375,164.296875,382504.44,1728493596859,1892
827.08740234375,-180.2978515625,786.68212890625,102.21875,-34.03125,159.1875,382508.9,1728493596859,1892
782.5927734375,-207.70263671875,764.58740234375,80.03125,-12.71875,151.625,382513.36,1728493596859,1892
752.197265625,-199.0966796875,761.71875,60.203125,5.8125,140.671875,382517.83,1728493596860,1892
752.44140625,-213.37890625,794.12841796875,46.921875,11.5,123.65625,382522.29,1728493596860,1892
776.06201171875,-151.123046875,801.8798828125,29.125,3.484375,106.859375,382526.75,1728493596860,1892
825.5615234375,-95.27587890625,772.76611328125,9.921875,-2.5,95.359375,382531.21,1728493596860,1892
873.4130859375,-44.49462890625,709.9609375,-11.796875,-1.703125,88.5625,382535.67,1728493596861,1892
903.25927734375,-32.89794921875,645.32470703125,-33.609375,7.15625,84.390625,382540.13,1728493596861,1892
918.02978515625,-38.75732421875,601.6845703125,-42.984375,16.140625,78.4375,382544.59,1728493596861,1892
934.02099609375,-30.6396484375,565.73486328125,-48.328125,20.828125,73.421875,382549.05,1728493596861,1892
949.64599609375,-23.98681640625,530.76171875,-56.125,21.328125,69.859375,382553.51,1728493596861,1892
965.63720703125,-38.51318359375,496.39892578125,-62.484375,18.6875,68.3125,382557.97,1728493596862,1892
984.2529296875,-61.8896484375,469.29931640625,-58.921875,14.4375,67.75,382562.43,1728493596862,1892
1000.9765625,-92.22412109375,440.00244140625,-45.390625,9.125,69.78125,382566.89,1728493596862,1892
1013.00048828125,-119.384765625,420.10498046875,-30.515625,2.28125,72.578125,382571.35,1728493596862,1892
1023.681640625,-124.6337890625,417.8466796875,-13.609375,-6.9375,75.78125,382575.81,1728493596862,1892
1062.92724609375,-88.9892578125,434.814453125,7.390625,-10.484375,75.453125,382580.27,1728493596863,1892
807.43408203125,-178.52783203125,426.6357421875,94.84375,-60.328125,239.84375,382642.0,1728493597005,1893
751.40380859375,-200.927734375,458.67919921875,102.6875,-51.078125,237.6875,382646.46,1728493597005,1893
679.26025390625,-230.712890625,519.10400390625,111.890625,-44.3125,233.453125,382650.92,1728493597005,1893
593.3837890625,-265.9912109375,602.47802734375,123.609375,-50.15625,224.4375,382655.38,1728493597006,1893
495.05615234375,-264.83154296875,690.0634765625,129.421875,-74.234375,210.3125,382659.84,1728493597006,1893
392.2119140625,-230.95703125,741.3330078125,127.15625,-102.75,199.828125,382664.3,1728493597006,1893
299.6826171875,-285.2783203125,761.90185546875,117.1875,-115.453125,176.46875,382668.76,1728493597006,1893
232.177734375,-319.27490234375,806.7626953125,110.875,-109.234375,146.453125,382673.22,1728493597007,1893
196.83837890625,-292.3583984375,862.85400390625,115.71875,-91.3125,112.234375,382677.68,1728493597007,1893
192.93212890625,-225.830078125,880.7373046875,112.90625,-66.28125,78.234375,382682.14,1728493597007,1893
215.39306640625,-203.2470703125,926.26953125,84.6875,-39.390625,43.671875,382686.6,1728493597007,1893
262.87841796875,-186.1572265625,975.03662109375,53.265625,-27.5,20.53125,382691.06,1728493597008,1893
314.63623046875,-245.05615234375,950.37841796875,-4.625,-21.25,-3.375,382695.52,1728493597008,1893
366.63818359375,-283.935546875,891.7236328125,-58.453125,-15.046875,-29.6875,382699.98,1728493597008,1893
434.08203125,-274.35302734375,784.5458984375,-89.71875,6.46875,-52.796875,382704.44,1728493597008,1893
505.0048828125,-277.40478515625,700.98876953125,-98.3125,40.140625,-73.90625,382708.9,1728493597009,1893
581.298828125,-301.26953125,641.357421875,-102.75,66.4375,-93.5625,382713.36,1728493597009,1893
659.48486328125,-245.7275390625,586.181640625,-113.3125,74.84375,-103.671875,382717.83,1728493597009,1893
744.140625,-232.72705078125,538.75732421875,-116.5625,73.765625,-105.0,382722.29,1728493597009,1893
817.19970703125,-281.55517578125,497.6806640625,-100.234375,67.625,-108.921875,382726.75,1728493597010,1893
891.845703125,-297.607421875,462.95166015625,-78.6875,58.46875,-111.09375,382731.21,1728493597010,1893
967.59033203125,-297.8515625,449.3408203125,-61.3125,48.4375,-110.734375,382735.67,1728493597010,1893
1031.73828125,-298.15673828125,445.80078125,-46.59375,37.671875,-104.8125,382740.13,1728493597011,1893
1068.17626953125,-288.14697265625,449.76806640625,-32.1875,26.546875,-93.59375,382744.59,1728493597011,1893
1073.73046875,-279.6630859375,462.2802734375,-16.296875,12.890625,-80.71875,382749.05,1728493597011,1893
1042.05322265625,-280.76171875,476.50146484375,-3.125,-2.640625,-68.21875,382753.51,1728493597011,1893
973.32763671875,-284.24072265625,498.53515625,8.34375,-17.125,-59.078125,382757.97,1728493597012,1893
887.75634765625,-320.068359375,533.99658203125,21.703125,-29.59375,-55.859375,382762.43,1728493597012,1893
811.279296875,-355.8349609375,562.19482421875,31.015625,-37.90625,-59.015625,382766.89,1728493597012,1893
760.498046875,-305.35888671875,599.06005859375,29.9375,-37.484375,-62.0,382771.35,1728493597012,1893
727.05078125,-279.6630859375,638.18359375,33.25,-28.171875,-67.953125,382775.81,1728493597013,1893
723.57177734375,-258.85009765625,663.330078125,28.640625,-11.640625,-75.5625,382780.27,1728493597013,1893
916.80908203125,-288.6962890625,707.275390625,-141.8125,-27.5625,-26.828125,382843.0,1728493597230,1894
937.6220703125,-273.92578125,675.78125,-153.03125,-26.78125,-25.203125,382847.46,1728493597230,1894
1082.33642578125,-215.75927734375,575.62255859375,-177.984375,-13.1875,-30.359375,382851.92,1728493597230,1894
1310.36376953125,-299.98779296875,427.79541015625,-211.046875,24.578125,-21.734375,382856.38,1728493597231,1894
1496.09375,-393.798828125,275.20751953125,-238.890625,60.609375,0.90625,382860.84,1728493597231,1894
1548.4619140625,-338.5009765625,193.2373046875,-245.75,64.125,33.015625,382865.3,1728493597231,1894
1480.8349609375,-262.20703125,171.69189453125,-215.640625,31.5625,75.109375,382869.76,1728493597231,1894
1298.2177734375,-238.34228515625,134.09423828125,-160.140625,-22.171875,118.28125,382874.22,1728493597232,1894
1067.9931640625,-249.1455078125,85.99853515625,-105.34375,-78.40625,147.40625,382878.68,1728493597232,1894
831.97021484375,-289.48974609375,52.24609375,-60.875,-125.125,159.15625,382883.14,1728493597232,1894
603.08837890625,-331.1767578125,57.43408203125,-22.265625,-157.78125,155.390625,382887.6,1728493597232,1894
410.7666015625,-347.59521484375,111.81640625,18.046875,-179.53125,134.4375,382892.06,1728493597233,1894
306.57958984375,-346.435546875,180.23681640625,57.0,-187.328125,97.78125,382896.52,1728493597233,1894
311.34033203125,-342.22412109375,259.1552734375,83.78125,-168.984375,55.0,382900.98,1728493597233,1894
401.4892578125,-355.89599609375,355.52978515625,90.84375,-126.25,16.15625,382905.44,1728493597233,1894
539.12353515625,-358.09326171875,446.8994140625,81.828125,-76.625,-13.75,382909.9,1728493597234,1894
687.92724609375,-335.5712890625,521.17919921875,60.734375,-37.90625,-31.875,382914.36,1728493597234,1894
797.54638671875,-312.98828125,588.07373046875,43.734375,-15.78125,-39.3125,382918.83,1728493597234,1894
857.2998046875,-322.998046875,619.384765625,28.015625,-5.640625,-41.734375,382923.29,1728493597234,1894
907.40966796875,-303.8330078125,608.7646484375,4.859375,-7.5,-36.5,382927.75,1728493597235,1894
941.40625,-267.63916015625,552.6123046875,-10.75,-11.40625,-26.59375,382932.21,1728493597235,1894
940.5517578125,-280.09033203125,504.21142578125,-21.4375,-6.9375,-17.484375,382936.67,1728493597235,1894
918.27392578125,-317.56591796875,491.02783203125,-24.765625,4.40625,-11.25,382941.13,1728493597235,1894
902.34375,-332.6416015625,484.19189453125,-29.90625,17.09375,-9.25,382945.59,1728493597236,1894
895.08056640625,-325.74462890625,477.35595703125,-37.65625,33.015625,-8.0625,382950.05,1728493597236,1894
900.20751953125,-320.61767578125,474.79248046875,-46.828125,52.890625,-5.828125,382954.51,1728493597236,1894
895.01953125,-301.6357421875,481.99462890625,-54.21875,71.515625,-4.328125,382958.97,1728493597236,1894
883.97216796875,-286.62109375,484.92431640625,-53.3125,77.140625,-7.515625,382963.43,1728493597237,1894
885.07080078125,-288.39111328125,498.22998046875,-50.734375,73.140625,-10.65625,382967.89,1728493597237,1894
885.19287109375,-298.095703125,509.33837890625,-48.3125,67.4375,-12.53125,382972.35,1728493597237,1894
873.84033203125,-290.83251953125,519.04296875,-46.515625,69.1875,-12.984375,382976.81,1728493597237,1894
850.40283203125,-204.1015625,526.123046875,-46.890625,81.34375,-14.328125,382981.27,1728493597238,1894
811.6455078125,-223.9990234375,312.744140625,2.484375,65.390625,-18.578125,383043.0,1728493597380,1895
831.787109375,-273.681640625,347.96142578125,13.109375,57.296875,-9.859375,383047.46,1728493597380,1895
823.54736328125,-312.5,400.69580078125,26.796875,50.359375,-0.96875,383051.92,1728493597381,1895
804.62646484375,-325.5615234375,460.8154296875,41.203125,45.6875,7.6875,383056.38,1728493597381,1895
786.9873046875,-338.43994140625,532.1044921875,46.390625,42.421875,13.453125,383060.84,1728493597381,1895
777.64892578125,-349.4873046875,597.65625,44.875,40.640625,17.796875,383065.3,1728493597381,1895
771.30126953125,-359.130859375,638.48876953125,35.984375,43.203125,21.640625,383069.76,1728493597382,1895
749.57275390625,-370.9716796875,666.80908203125,21.90625,47.265625,23.140625,383074.22,1728493597382,1895
725.15869140625,-382.62939453125,682.0068359375,10.875,48.359375,21.21875,383078.68,1728493597382,1895
709.228515625,-386.1083984375,682.31201171875,4.3125,45.0,16.5625,383083.14,1728493597382,1895
708.43505859375,-382.75146484375,674.37744140625,1.5625,39.234375,10.09375,383087.6,1728493597382,1895
723.69384765625,-369.68994140625,659.423828125,1.390625,35.0,3.109375,383092.06,1728493597383,1895
746.2158203125,-357.97119140625,644.287109375,1.765625,32.6875,-1.609375,383096.52,1728493597383,1895
769.53125,-338.19580078125,632.2021484375,2.046875,28.296875,-5.484375,383100.98,1728493597383,1895
792.8466796875,-316.10107421875,614.2578125,2.1875,20.96875,-7.71875,383105.44,1728493597383,1895
812.80517578125,-301.94091796875,594.970703125,4.109375,13.15625,-8.390625,383109.9,1728493597384,1895
824.462890625,-286.56005859375,575.98876953125,7.96875,6.859375,-6.640625,383114.36,1728493597384,1895
830.62744140625,-297.30224609375,566.10107421875,11.796875,2.078125,-2.625,383118.83,1728493597384,1895
828.61328125,-311.1572265625,561.8896484375,16.8125,-4.984375,0.71875,383123.29,1728493597384,1895
827.392578125,-292.05322265625,558.10546875,19.6875,-11.234375,5.515625,383127.75,1728493597385,1895
819.7021484375,-299.9267578125,559.9365234375,22.890625,-15.296875,10.75,383132.21,1728493597385,1895
809.99755859375,-310.11962890625,554.931640625,26.515625,-20.0,15.625,383136.67,1728493597385,1895
800.35400390625,-331.6650390625,546.32568359375,29.109375,-27.140625,19.703125,383141.13,1728493597385,1895
792.66357421875,-332.82470703125,537.41455078125,33.65625,-37.34375,22.921875,383145.59,1728493597386,1895
783.8134765625,-325.439453125,531.1279296875,40.03125,-46.4375,25.578125,383150.05,1728493597386,1895
779.541015625,-312.31689453125,523.92578125,46.890625,-51.21875,26.40625,383154.51,1728493597387,1895
780.6396484375,-302.67333984375,523.13232421875,53.015625,-49.640625,26.125,383158.97,1728493597387,1895
782.40966796875,-307.92236328125,540.46630859375,59.25,-47.0625,24.671875,383163.43,1728493597387,1895
784.85107421875,-313.5986328125,570.49560546875,65.28125,-48.421875,22.234375,383167.89,1728493597387,1895
787.53662109375,-313.53759765625,600.89111328125,69.53125,-53.75,19.1875,383172.35,1728493597388,1895
794.37255859375,-315.73486328125,622.802734375,73.859375,-58.671875,15.125,383176.81,1728493597388,1895
805.96923828125,-315.49072265625,643.12744140625,78.015625,-58.3125,10.59375,383181.27,1728493597388,1895
964.9658203125,-259.033203125,598.08349609375,19.03125,-24.75,29.296875,383244.0,1728493597604,1896
943.603515625,-249.0234375,605.1025390625,22.140625,-35.921875,38.4375,383248.46,1728493597605,1896
935.24169921875,-240.17333984375,593.68896484375,24.9375,-45.296875,45.34375,383252.92,1728493597605,1896
934.14306640625,-241.5771484375,567.87109375,27.09375,-50.515625,52.703125,383257.38,1728493597605,1896
923.15673828125,-247.49755859375,545.2880859375,31.421875,-54.46875,61.078125,383261.84,1728493597605,1896
893.12744140625,-258.4228515625,525.146484375,37.078125,-61.609375,70.546875,383266.3,1728493597606,1896
850.5859375,-282.1044921875,511.41357421875,44.109375,-75.078125,79.328125,383270.76,1728493597606,1896
812.56103515625,-306.5185546875,508.7890625,55.484375,-94.546875,86.359375,383275.22,1728493597606,1896
786.56005859375,-320.86181640625,504.2724609375,67.28125,-112.875,92.28125,383279.68,1728493597606,1896
769.47021484375,-318.90869140625,506.4697265625,76.359375,-123.15625,96.0625,383284.14,1728493597607,1896
760.3759765625,-306.15234375,513.12255859375,83.265625,-124.671875,97.34375,383288.6,1728493597607,1896
761.8408203125,-292.66357421875,531.005859375,87.8125,-119.265625,96.734375,383293.06,1728493597607,1896
764.34326171875,-303.64990234375,563.29345703125,90.203125,-111.125,96.265625,383297.52,1728493597607,1896
762.02392578125,-336.85302734375,602.11181640625,91.59375,-104.125,97.046875,383301.98,1728493597608,1896
733.88671875,-386.71875,633.056640625,90.609375,-100.765625,98.9375,383306.44,1728493597608,1896
664.6728515625,-471.74072265625,654.6630859375,84.25,-100.921875,101.78125,383310.9,1728493597608,1896
593.75,-546.44775390625,675.048828125,79.9375,-101.5,98.9375,383315.36,1728493597608,1896
552.490234375,-567.5048828125,699.5849609375,81.84375,-95.734375,87.734375,383319.83,1728493597609,1896
547.05810546875,-530.3955078125,718.56689453125,81.328125,-78.1875,72.34375,383324.29,1728493597609,1896
564.453125,-469.3603515625,730.28564453125,70.609375,-50.125,55.0,383328.75,1728493597609,1896
601.01318359375,-429.0771484375,738.95263671875,51.3125,-22.421875,37.640625,383333.21,1728493597609,1896
650.390625,-410.7666015625,731.4453125,32.0,-4.96875,22.359375,383337.67,1728493597611,1896
694.51904296875,-402.83203125,698.486328125,18.78125,-0.34375,11.296875,383342.13,1728493597611,1896
734.55810546875,-394.04296875,662.17041015625,11.71875,-9.96875,3.921875,383346.59,1728493597611,1896
779.4189453125,-380.06591796875,624.32861328125,13.375,-25.46875,-0.40625,383351.05,1728493597611,1896
825.50048828125,-367.98095703125,588.37890625,21.5,-33.609375,-0.953125,383355.51,1728493597611,1896
853.45458984375,-362.1826171875,569.76318359375,29.03125,-33.921875,1.0625,383359.97,1728493597612,1896
863.76953125,-359.7412109375,570.86181640625,36.015625,-34.59375,3.96875,383364.43,1728493597612,1896
862.548828125,-350.4638671875,580.6884765625,41.796875,-39.296875,7.609375,383368.89,1728493597612,1896
863.28125,-344.66552734375,589.7216796875,47.390625,-47.53125,11.96875,383373.35,1728493597612,1896
862.73193359375,-352.294921875,597.83935546875,50.984375,-54.46875,16.65625,383377.81,1728493597613,1896
864.44091796875,-358.0322265625,605.5908203125,53.9375,-59.3125,20.703125,383382.27,1728493597613,1896
852.84423828125,-363.4033203125,611.2060546875,25.953125,-57.578125,52.734375,383445.0,1728493597855,1897
836.3037109375,-372.9248046875,603.57666015625,22.65625,-64.9375,57.21875,383449.46,1728493597855,1897
815.185546875,-381.53076171875,592.95654296875,23.375,-71.46875,59.15625,383453.92,1728493597855,1897
796.38671875,-384.1552734375,588.134765625,21.1875,-68.859375,60.359375,383458.38,1728493597855,1897
774.23095703125,-386.41357421875,597.2900390625,18.90625,-60.875,59.59375,383462.84,1728493597856,1897
763.427734375,-389.58740234375,605.712890625,14.859375,-52.515625,56.328125,383467.3,1728493597856,1897
769.59228515625,-385.68115234375,611.02294921875,8.890625,-45.0625,51.515625,383471.76,1728493597856,1897
790.771484375,-375.06103515625,609.43603515625,3.609375,-39.8125,47.125,383476.22,1728493597856,1897
804.62646484375,-372.61962890625,597.5341796875,-1.9375,-36.28125,44.0625,383480.68,1728493597857,1897
808.59375,-369.20166015625,583.31298828125,-5.515625,-36.15625,41.859375,383485.14,1728493597858,1897
808.59375,-363.1591796875,564.75830078125,-6.34375,-39.125,39.546875,383489.6,1728493597858,1897
804.26025390625,-363.525390625,543.3349609375,-7.6875,-44.078125,37.921875,383494.06,1728493597858,1897
800.72021484375,-366.51611328125,517.333984375,-7.3125,-48.0625,37.234375,383498.52,1728493597858,1897
787.2314453125,-363.4033203125,487.85400390625,-7.171875,-48.828125,37.515625,383502.98,1728493597859,1897
774.0478515625,-361.99951171875,477.4169921875,-3.015625,-50.09375,36.171875,383507.44,1728493597859,1897
771.6064453125,-368.65234375,459.9609375,5.5625,-51.609375,35.375,383511.9,1728493597859,1897
772.27783203125,-383.48388671875,447.20458984375,10.515625,-51.328125,35.046875,383516.36,1728493597859,1897
771.91162109375,-388.671875,437.92724609375,14.953125,-45.75,34.328125,383520.83,1728493597860,1897
768.85986328125,-390.31982421875,434.26513671875,19.328125,-35.796875,33.390625,383525.29,1728493597860,1897
767.63916015625,-388.18359375,450.3173828125,24.796875,-30.046875,32.3125,383529.75,1728493597860,1897
765.07568359375,-381.9580078125,473.0224609375,30.0625,-33.65625,31.734375,383534.21,1728493597860,1897
761.3525390625,-377.685546875,483.45947265625,34.609375,-38.859375,31.21875,383538.67,1728493597861,1897
751.5869140625,-379.7607421875,488.58642578125,36.765625,-38.203125,30.671875,383543.13,1728493597861,1897
735.7177734375,-383.36181640625,495.42236328125,38.265625,-33.515625,29.078125,383547.59,1728493597861,1897
725.4638671875,-388.36669921875,504.21142578125,38.1875,-28.84375,25.671875,383552.05,1728493597861,1897
721.37451171875,-384.82666015625,506.103515625,37.828125,-27.484375,21.8125,383556.51,1728493597861,1897
728.02734375,-422.4853515625,498.22998046875,39.109375,-25.609375,16.4375,383560.97,1728493597862,1897
732.91015625,-431.09130859375,502.685546875,37.296875,-17.125,12.046875,383565.43,1728493597862,1897
733.88671875,-424.37744140625,518.9208984375,37.25,-9.8125,7.34375,383569.89,1728493597862,1897
739.990234375,-426.8798828125,522.4609375,37.453125,-6.3125,2.453125,383574.35,1728493597862,1897
748.22998046875,-434.99755859375,515.93017578125,34.8125,-1.0625,-1.265625,383578.81,1728493597863,1897
756.28662109375,-433.77685546875,515.9912109375,35.078125,3.03125,-4.265625,383583.27,1728493597863,1897
760.009765625,-425.84228515625,684.63134765625,14.015625,15.59375,-33.734375,383645.0,1728493598005,1898
755.4931640625,-435.36376953125,641.05224609375,-1.953125,18.78125,-32.578125,383649.46,1728493598006,1898
775.81787109375,-419.921875,634.70458984375,-9.5,42.03125,-36.203125,383653.92,1728493598006,1898
812.744140625,-425.1708984375,644.59228515625,-12.4375,57.46875,-37.0625,383658.38,1728493598006,1898
794.49462890625,-433.04443359375,617.73681640625,-22.4375,64.546875,-34.109375,383662.84,1728493598006,1898
789.55078125,-431.884765625,586.7919921875,-24.0625,80.34375,-36.0,383667.3,1728493598007,1898
788.02490234375,-417.96875,580.99365234375,-24.375,103.921875,-37.078125,383671.76,1728493598007,1898
773.8037109375,-397.39990234375,591.85791015625,-26.265625,117.90625,-37.8125,383676.22,1728493598007,1898
761.474609375,-394.22607421875,598.81591796875,-27.21875,113.8125,-39.140625,383680.68,1728493598007,1898
770.8740234375,-397.76611328125,613.76953125,-24.625,92.6875,-40.65625,383685.14,1728493598008,1898
824.70703125,-409.5458984375,634.521484375,-21.546875,56.03125,-40.09375,383689.6,1728493598008,1898
812.07275390625,-423.7060546875,587.70751953125,-26.328125,22.78125,-30.671875,383694.06,1728493598008,1898
748.291015625,-433.4716796875,519.83642578125,-31.1875,28.953125,-28.578125,383698.52,1728493598008,1898
715.02685546875,-436.279296875,496.64306640625,-25.3125,67.203125,-34.140625,383702.98,1728493598009,1898
694.76318359375,-444.9462890625,513.00048828125,-20.40625,103.0625,-41.203125,383707.44,1728493598009,1898
693.115234375,-449.03564453125,561.767578125,-14.140625,118.296875,-48.0625,383711.9,1728493598009,1898
699.03564453125,-403.3203125,602.9052734375,-11.53125,116.296875,-52.84375,383716.36,1728493598009,1898
699.3408203125,-370.9716796875,627.38037109375,-14.875,101.6875,-56.4375,383720.83,1728493598010,1898
708.740234375,-372.4365234375,636.1083984375,-18.84375,75.453125,-60.171875,383725.29,1728493598010,1898
762.14599609375,-375.79345703125,618.34716796875,-17.390625,52.609375,-62.890625,383729.75,1728493598011,1898
854.30908203125,-351.74560546875,654.11376953125,-13.109375,36.8125,-61.5,383734.21,1728493598011,1898
839.53857421875,-383.9111328125,604.67529296875,-18.390625,9.109375,-48.078125,383738.67,1728493598011,1898
752.0751953125,-393.85986328125,526.06201171875,-35.46875,23.90625,-46.0,383743.13,1728493598011,1898
747.37548828125,-381.2255859375,495.17822265625,-22.65625,70.703125,-54.65625,383747.59,1728493598012,1898
767.02880859375,-381.16455078125,525.87890625,-13.296875,104.21875,-59.875,383752.05,1728493598012,1898
784.11865234375,-382.99560546875,581.9091796875,-7.609375,109.5,-58.9375,383756.51,1728493598012,1898
779.96826171875,-368.0419921875,622.00927734375,-7.296875,97.234375,-56.90625,383760.97,1728493598012,1898
782.958984375,-347.10693359375,653.6865234375,-9.609375,78.75,-56.515625,383765.43,1728493598013,1898
822.93701171875,-332.6416015625,683.77685546875,-10.765625,54.515625,-54.640625,383769.89,1728493598013,1898
915.22216796875,-335.693359375,721.13037109375,-10.828125,10.59375,-47.4375,383774.35,1728493598013,1898
830.810546875,-366.8212890625,589.599609375,-28.90625,-31.9375,-28.1875,383778.81,1728493598013,1898
757.14111328125,-364.6240234375,505.18798828125,-35.59375,-2.0,-31.78125,383783.27,1728493598014,1898
698.30322265625,-337.40234375,544.12841796875,18.59375,32.53125,16.015625,383846.0,1728493598230,1899
731.201171875,-349.67041015625,627.50244140625,35.703125,-5.265625,15.78125,383850.46,1728493598231,1899
639.2822265625,-398.25439453125,570.3125,29.65625,-52.84375,18.34375,383854.92,1728493598231,1899
689.8193359375,-394.95849609375,589.66064453125,40.9375,-55.171875,2.296875,383859.38,1728493598231,1899
780.1513671875,-394.04296875,615.72265625,54.53125,-65.390625,5.984375,383863.84,1728493598231,1899
676.69677734375,-389.5263671875,575.13427734375,43.09375,-64.5625,13.90625,383868.3,1728493598231,1899
650.146484375,-368.0419921875,579.4677734375,48.9375,-32.953125,0.109375,383872.76,1728493598232,1899
730.8349609375,-354.06494140625,638.61083984375,53.8125,-11.625,-6.34375,383877.22,1728493598232,1899
750.8544921875,-346.0693359375,663.57421875,54.65625,-35.5,-0.484375,383881.68,1728493598232,1899
713.92822265625,-365.41748046875,631.103515625,49.390625,-58.0625,0.046875,383886.14,1728493598232,1899
748.96240234375,-368.46923828125,629.5166015625,52.9375,-58.796875,-3.375,383890.6,1728493598233,1899
762.20703125,-363.525390625,634.09423828125,54.53125,-61.90625,0.765625,383895.06,1728493598233,1899
744.0185546875,-372.9248046875,624.57275390625,57.53125,-60.484375,1.703125,383899.52,1728493598233,1899
756.16455078125,-372.61962890625,649.90234375,60.9375,-53.125,0.9375,383903.98,1728493598233,1899
766.66259765625,-350.64697265625,677.490234375,62.0625,-56.0625,2.984375,383908.44,1728493598234,1899
768.00537109375,-382.62939453125,692.32177734375,63.0,-64.3125,4.65625,383912.9,1728493598234,1899
771.97265625,-373.53515625,719.90966796875,64.34375,-71.375,6.484375,383917.36,1728493598234,1899
770.44677734375,-361.02294921875,742.1875,62.453125,-89.296875,5.59375,383921.83,1728493598234,1899
785.400390625,-371.88720703125,729.98046875,56.015625,-103.203125,8.515625,383926.29,1728493598234,1899
778.6865234375,-364.31884765625,703.91845703125,48.046875,-102.53125,13.140625,383930.75,1728493598235,1899
764.58740234375,-362.85400390625,654.35791015625,40.3125,-89.796875,13.046875,383935.21,1728493598235,1899
771.17919921875,-366.76025390625,616.2109375,36.78125,-64.328125,11.671875,383939.67,1728493598235,1899
785.64453125,-385.07080078125,600.03662109375,43.03125,-40.46875,12.328125,383944.13,1728493598235,1899
790.71044921875,-393.12744140625,649.0478515625,51.78125,-27.21875,13.640625,383948.59,1728493598236,1899
787.353515625,-374.57275390625,730.1025390625,60.828125,-34.078125,17.171875,383953.05,1728493598236,1899
755.67626953125,-367.24853515625,765.380859375,57.828125,-54.953125,20.515625,383957.51,1728493598236,1899
739.56298828125,-374.755859375,777.77099609375,47.46875,-67.25,18.5625,383961.97,1728493598236,1899
744.140625,-385.009765625,760.31494140625,38.078125,-69.171875,16.015625,383966.43,1728493598237,1899
737.6708984375,-406.494140625,719.6044921875,25.265625,-50.765625,16.796875,383970.89,1728493598237,1899
728.3935546875,-402.4658203125,710.38818359375,18.4375,-22.625,12.359375,383975.35,1728493598237,1899
723.0224609375,-391.17431640625,696.83837890625,14.90625,-8.171875,8.265625,383979.81,1728493598237,1899
734.2529296875,-389.83154296875,689.453125,11.765625,-1.234375,3.5,383984.27,1728493598237,1899
669.189453125,-418.51806640625,663.57421875,40.6875,-13.4375,4.0,384047.0,1728493598381,1900
624.6337890625,-426.33056640625,695.86181640625,33.640625,14.0,0.609375,384051.46,1728493598381,1900
590.087890625,-417.17529296875,739.2578125,26.953125,34.578125,-9.984375,384055.92,1728493598381,1900
601.1962890625,-406.92138671875,778.6865234375,16.40625,39.796875,-21.5625,384060.38,1728493598381,1900
629.45556640625,-405.33447265625,793.51806640625,2.65625,37.328125,-29.96875,384064.84,1728493598382,1900
652.34375,-412.17041015625,780.21240234375,-13.875,36.21875,-36.9375,384069.3,1728493598382,1900
674.49951171875,-415.58837890625,746.09375,-27.296875,38.96875,-43.15625,384073.76,1728493598382,1900
701.84326171875,-415.0390625,707.3974609375,-36.265625,46.984375,-48.234375,384078.22,1728493598382,1900
740.66162109375,-411.31591796875,680.23681640625,-37.390625,59.125,-51.5625,384082.68,1728493598383,1900
765.625,-405.6396484375,671.32568359375,-36.09375,66.140625,-50.75,384087.14,1728493598383,1900
762.6953125,-403.564453125,675.72021484375,-34.171875,61.65625,-48.71875,384091.6,1728493598383,1900
734.2529296875,-406.3720703125,669.5556640625,-35.296875,47.390625,-46.609375,384096.06,1728493598383,1900
710.63232421875,-400.45166015625,643.12744140625,-36.34375,25.875,-46.09375,384100.52,1728493598384,1900
691.89453125,-393.37158203125,606.8115234375,-34.125,10.46875,-46.40625,384104.98,1728493598384,1900
673.583984375,-395.81298828125,587.40234375,-27.046875,10.09375,-48.65625,384109.44,1728493598384,1900
661.376953125,-395.751953125,591.12548828125,-18.71875,15.953125,-52.15625,384113.9,1728493598384,1900
662.53662109375,-395.6298828125,615.17333984375,-15.375,19.25,-56.203125,384118.36,1728493598385,1900
688.4765625,-396.66748046875,630.37109375,-14.859375,20.0625,-60.296875,384122.83,1728493598385,1900
731.4453125,-400.5126953125,640.0146484375,-14.96875,24.46875,-62.25,384127.29,1728493598385,1900
775.81787109375,-407.65380859375,659.24072265625,-13.671875,30.671875,-62.09375,384131.75,1728493598385,1900
813.53759765625,-411.07177734375,687.8662109375,-12.28125,32.15625,-59.25,384136.21,1728493598386,1900
835.51025390625,-417.05322265625,711.42578125,-14.4375,28.078125,-53.96875,384140.67,1728493598386,1900
836.669921875,-416.259765625,722.35107421875,-18.546875,20.6875,-47.15625,384145.13,1728493598386,1900
815.673828125,-407.53173828125,720.27587890625,-21.015625,15.453125,-40.953125,384149.59,1728493598386,1900
787.65869140625,-408.69140625,721.37451171875,-21.9375,14.296875,-38.078125,384154.05,1728493598387,1900
759.1552734375,-403.74755859375,715.8203125,-24.265625,13.046875,-35.875,384158.51,1728493598387,1900
720.703125,-393.310546875,697.6318359375,-25.21875,15.90625,-35.84375,384162.97,1728493598387,1900
704.7119140625,-399.84130859375,693.84765625,-25.1875,25.296875,-39.875,384167.43,1728493598388,1900
702.63671875,-405.517578125,698.66943359375,-26.15625,34.84375,-43.109375,384171.89,1728493598388,1900
702.1484375,-413.818359375,700.86669921875,-26.1875,38.5,-44.34375,384176.35,1728493598388,1900
695.86181640625,-425.10986328125,698.79150390625,-25.5,35.5,-44.8125,384180.81,1728493598388,1900
681.94580078125,-439.5751953125,695.98388671875,-24.609375,29.40625,-45.625,384185.27,1728493598389,1900
780.70068359375,-385.80322265625,744.44580078125,-71.546875,69.703125,-99.171875,384247.0,1728493598605,1901
760.80322265625,-363.1591796875,735.107421875,-71.015625,63.265625,-100.296875,384251.46,1728493598606,1901
722.2900390625,-350.40283203125,730.77392578125,-68.265625,56.4375,-103.671875,384255.92,1728493598606,1901
700.8056640625,-340.14892578125,738.1591796875,-66.34375,59.75,-110.0625,384260.38,1728493598606,1901
683.837890625,-207.763671875,764.09912109375,-69.484375,72.9375,-114.59375,384264.84,1728493598606,1901
641.90673828125,-272.15576171875,788.4521484375,-76.765625,84.46875,-122.109375,384269.3,1728493598607,1901
640.5029296875,-394.4091796875,808.04443359375,-81.65625,89.28125,-136.734375,384273.76,1728493598607,1901
675.1708984375,-330.2001953125,837.646484375,-88.8125,92.9375,-143.625,384278.22,1728493598607,1901
681.33544921875,-472.83935546875,860.90087890625,-90.0,93.78125,-147.390625,384282.68,1728493598607,1901
675.9033203125,-528.3203125,872.74169921875,-91.640625,95.484375,-150.859375,384287.14,1728493598608,1901
676.3916015625,-513.85498046875,898.3154296875,-93.640625,97.984375,-155.046875,384291.6,1728493598608,1901
666.93115234375,-455.2001953125,922.36328125,-96.53125,99.265625,-157.421875,384296.06,1728493598608,1901
639.46533203125,-424.98779296875,931.5185546875,-105.265625,99.296875,-160.8125,384300.52,1728493598608,1901
617.919921875,-412.29248046875,917.17529296875,-123.296875,99.46875,-166.171875,384304.98,1728493598609,1901
615.6005859375,-427.734375,863.83056640625,-152.03125,103.46875,-173.609375,384309.44,1728493598609,1901
644.53125,-525.7568359375,777.28271484375,-172.625,104.71875,-176.375,384313.9,1728493598609,1901
647.27783203125,-528.6865234375,673.27880859375,-197.078125,95.640625,-173.59375,384318.36,1728493598609,1901
615.17333984375,-505.7373046875,593.1396484375,-190.578125,71.921875,-169.515625,384322.83,1728493598610,1901
569.3359375,-496.15478515625,514.95361328125,-153.1875,40.453125,-167.359375,384327.29,1728493598610,1901
532.04345703125,-510.31494140625,477.05078125,-101.328125,14.796875,-168.796875,384331.75,1728493598610,1901
531.494140625,-521.78955078125,470.88623046875,-53.625,2.828125,-171.421875,384336.21,1728493598610,1901
557.55615234375,-479.30908203125,524.71923828125,-17.5625,0.984375,-175.25,384340.67,1728493598611,1901
610.90087890625,-440.12451171875,588.80615234375,6.984375,4.78125,-180.46875,384345.13,1728493598611,1901
675.72021484375,-417.41943359375,643.5546875,17.625,12.390625,-182.4375,384349.59,1728493598611,1901
735.53466796875,-408.99658203125,677.30712890625,12.96875,20.6875,-180.390625,384354.05,1728493598611,1901
772.3388671875,-376.220703125,706.72607421875,2.921875,25.828125,-174.0625,384358.51,1728493598611,1901
781.25,-350.03662109375,694.03076171875,-2.296875,31.125,-164.5625,384362.97,1728493598612,1901
765.625,-337.40234375,670.47119140625,-7.53125,35.890625,-153.5,384367.43,1728493598612,1901
739.74609375,-326.0498046875,641.66259765625,-6.453125,37.046875,-144.078125,384371.89,1728493598612,1901
717.8955078125,-319.27490234375,613.58642578125,3.46875,35.75,-137.359375,384376.35,1728493598613,1901
701.2939453125,-315.24658203125,605.46875,19.6875,37.84375,-131.4375,384380.81,1728493598613,1901
680.908203125,-311.8896484375,625.91552734375,33.015625,41.90625,-128.71875,384385.27,1728493598613,1901
545.166015625,-225.40283203125,694.03076171875,-10.5,-88.9375,-128.359375,384448.0,1728493598830,1902
603.33251953125,-101.13525390625,695.4345703125,-15.765625,-97.96875,-146.390625,384452.46,1728493598830,1902
720.3369140625,1.5869140625,713.80615234375,-23.875,-90.09375,-166.25,384456.92,1728493598830,1902
822.32666015625,-30.09033203125,740.29541015625,-25.4375,-71.953125,-171.984375,384461.38,1728493598830,1902
864.013671875,-115.6005859375,719.23828125,-34.5625,-75.828125,-167.546875,384465.84,1728493598831,1902
869.9951171875,-158.935546875,683.41064453125,-37.25,-110.828125,-159.265625,384470.3,1728493598831,1902
850.5859375,-163.51318359375,620.9716796875,-25.140625,-153.125,-145.515625,384474.76,1728493598831,1902
810.6689453125,-167.78564453125,548.40087890625,-5.375,-182.984375,-133.3125,384479.22,1728493598831,1902
774.35302734375,-185.24169921875,506.53076171875,29.8125,-195.171875,-124.765625,384483.68,1728493598832,1902
783.0810546875,-223.9990234375,474.79248046875,68.03125,-195.75,-122.109375,384488.14,1728493598832,1902
819.03076171875,-215.2099609375,486.9384765625,96.890625,-184.5625,-118.046875,384492.6,1728493598832,1902
863.8916015625,-211.60888671875,528.1982421875,121.890625,-175.59375,-116.171875,384497.06,1728493598832,1902
891.05224609375,-194.3359375,579.4677734375,141.59375,-173.546875,-112.75,384501.52,1728493598833,1902
910.09521484375,-160.15625,624.20654296875,152.359375,-182.015625,-110.125,384505.98,1728493598833,1902
927.978515625,-142.27294921875,667.1142578125,156.921875,-194.765625,-107.890625,384510.44,1728493598833,1902
940.24658203125,-168.45703125,673.88916015625,158.890625,-204.109375,-103.640625,384514.9,1728493598833,1902
944.3359375,-177.30712890625,691.34521484375,155.359375,-207.0625,-98.296875,384519.36,1728493598834,1902
933.349609375,-202.63671875,703.61328125,150.875,-201.9375,-92.796875,384523.83,1728493598834,1902
919.73876953125,-230.5908203125,712.7685546875,146.640625,-192.359375,-91.15625,384528.29,1728493598834,1902
913.02490234375,-216.9189453125,713.07373046875,133.921875,-176.734375,-91.90625,384532.75,1728493598835,1902
909.66796875,-209.89990234375,726.37939453125,119.203125,-155.265625,-93.546875,384537.21,1728493598835,1902
909.97314453125,-219.8486328125,715.51513671875,106.296875,-129.796875,-95.109375,384541.67,1728493598835,1902
911.9873046875,-214.4775390625,686.279296875,93.03125,-106.125,-95.609375,384546.13,1728493598835,1902
916.259765625,-205.322265625,656.005859375,80.3125,-91.984375,-94.34375,384550.59,1728493598836,1902
918.8232421875,-215.75927734375,632.32421875,79.546875,-87.25,-90.046875,384555.05,1728493598836,1902
908.5693359375,-198.66943359375,609.68017578125,86.390625,-85.1875,-85.3125,384559.51,1728493598837,1902
886.1083984375,-171.38671875,600.7080078125,95.515625,-86.1875,-83.046875,384563.97,1728493598837,1902
856.201171875,-175.29296875,606.50634765625,105.921875,-88.484375,-79.328125,384568.43,1728493598837,1902
816.7724609375,-154.1748046875,625.18310546875,109.765625,-86.734375,-76.09375,384572.89,1728493598837,1902
776.2451171875,-116.51611328125,646.8505859375,111.859375,-79.234375,-77.171875,384577.35,1728493598838,1902
745.7275390625,-117.12646484375,658.5693359375,110.515625,-67.375,-79.0625,384581.81,1728493598838,1902
720.76416015625,-128.23486328125,664.61181640625,101.703125,-50.734375,-82.828125,384586.27,1728493598839,1902
838.31787109375,-102.5390625,609.2529296875,78.515625,-74.484375,-122.984375,384649.0,1728493599081,1903
820.12939453125,-75.86669921875,614.92919921875,71.0625,-75.8125,-121.796875,384653.46,1728493599081,1903
807.2509765625,-53.7109375,613.58642578125,63.703125,-76.84375,-121.609375,384657.92,1728493599081,1903
802.24609375,-42.17529296875,605.3466796875,57.265625,-78.875,-121.71875,384662.38,1728493599082,1903
804.26025390625,-41.1376953125,593.017578125,53.265625,-83.265625,-121.75,384666.84,1728493599082,1903
816.162109375,-51.26953125,577.63671875,50.96875,-89.515625,-120.359375,384671.3,1728493599082,1903
833.31298828125,-50.72021484375,565.0634765625,51.0,-97.09375,-118.859375,384675.76,1728493599082,1903
857.0556640625,-41.32080078125,551.94091796875,50.875,-103.265625,-117.859375,384680.22,1728493599083,1903
882.080078125,-36.4990234375,544.00634765625,50.71875,-106.484375,-113.796875,384684.68,1728493599083,1903
903.3203125,-17.88330078125,536.4990234375,48.96875,-109.109375,-109.484375,384689.14,1728493599083,1903
920.47119140625,27.7099609375,521.30126953125,45.140625,-112.71875,-101.703125,384693.6,1728493599083,1903
944.2138671875,90.9423828125,498.4130859375,43.140625,-122.296875,-88.875,384698.06,1728493599084,1903
968.07861328125,137.26806640625,469.42138671875,50.359375,-137.703125,-79.515625,384702.52,1728493599084,1903
995.66650390625,107.421875,425.47607421875,54.015625,-145.734375,-64.75,384706.98,1728493599084,1903
1029.60205078125,126.3427734375,436.46240234375,61.390625,-144.046875,-57.875,384711.44,1728493599084,1903
1073.66943359375,147.8271484375,452.7587890625,91.625,-139.875,-49.484375,384715.9,1728493599084,1903
1120.361328125,159.66796875,467.1630859375,97.609375,-132.015625,-34.96875,384720.36,1728493599085,1903
1251.15966796875,167.05322265625,744.62890625,49.578125,-35.328125,-19.828125,384724.83,1728493599085,1903
1180.48095703125,80.4443359375,853.33251953125,-27.453125,130.09375,-12.78125,384729.29,1728493599085,1903
1075.13427734375,33.935546875,859.375,-46.09375,127.796875,-6.40625,384733.75,1728493599085,1903
1018.37158203125,0.79345703125,860.41259765625,-93.703125,51.71875,4.3125,384738.21,1728493599086,1903
924.74365234375,-34.1796875,823.6083984375,-153.265625,-36.390625,9.640625,384742.67,1728493599086,1903
878.23486328125,-57.7392578125,746.2158203125,-172.9375,-95.984375,8.78125,384747.13,1728493599086,1903
798.828125,-61.1572265625,611.14501953125,-122.921875,-112.21875,7.1875,384751.59,1728493599086,1903
648.5595703125,-111.87744140625,517.08984375,-22.171875,-64.46875,14.796875,384756.05,1728493599087,1903
728.94287109375,-189.51416015625,420.83740234375,14.09375,-15.875,-10.765625,384760.51,1728493599087,1903
849.54833984375,-175.9033203125,460.87646484375,-0.515625,13.140625,-23.40625,384764.97,1728493599088,1903
934.02099609375,-107.2998046875,546.93603515625,11.28125,31.828125,-23.84375,384769.43,1728493599088,1903
921.142578125,-76.96533203125,610.3515625,7.296875,30.609375,-29.515625,384773.89,1728493599088,1903
906.79931640625,-47.2412109375,635.19287109375,1.640625,23.875,-35.109375,384778.35,1728493599088,1903
941.83349609375,-53.1005859375,646.240234375,-0.09375,14.421875,-33.75,384782.81,1728493599088,1903
900.2685546875,-58.4716796875,636.04736328125,-4.625,8.421875,-32.421875,384787.27,1728493599089,1903
793.45703125,-47.2412109375,657.470703125,-26.53125,9.546875,-45.578125,384849.0,1728493599232,1904
804.99267578125,-45.166015625,613.95263671875,-31.953125,0.21875,-48.28125,384853.46,1728493599232,1904
799.1943359375,-8.23974609375,582.763671875,-34.734375,-1.84375,-52.3125,384857.92,1728493599232,1904
821.8994140625,20.8740234375,580.2001953125,-34.09375,2.890625,-54.34375,384862.38,1728493599233,1904
851.1962890625,6.4697265625,599.67041015625,-34.53125,10.0,-53.3125,384866.84,1728493599233,1904
855.8349609375,-13.73291015625,619.140625,-31.5625,15.453125,-51.625,384871.3,1728493599233,1904
845.8251953125,-3.84521484375,633.1787109375,-26.375,18.4375,-52.40625,384875.76,1728493599233,1904
862.24365234375,-2.9296875,642.578125,-22.515625,17.765625,-50.8125,384880.22,1728493599234,1904
867.0654296875,-18.49365234375,646.66748046875,-20.546875,12.21875,-47.6875,384884.68,1728493599234,1904
853.45458984375,-19.47021484375,638.73291015625,-20.953125,5.5625,-45.796875,384889.14,1728493599235,1904
845.64208984375,-14.16015625,619.7509765625,-23.171875,0.9375,-44.703125,384893.6,1728493599235,1904
832.82470703125,-21.05712890625,598.6328125,-27.234375,0.84375,-44.5625,384898.06,1728493599236,1904
813.78173828125,-23.92578125,574.76806640625,-31.21875,5.546875,-47.078125,384902.52,1728493599236,1904
816.650390625,-24.59716796875,555.96923828125,-34.921875,11.828125,-50.375,384906.98,1728493599236,1904
818.90869140625,-28.62548828125,540.52734375,-38.109375,18.515625,-53.234375,384911.44,1728493599236,1904
817.56591796875,-35.21728515625,525.45166015625,-41.09375,25.046875,-55.859375,384915.9,1728493599237,1904
806.640625,-46.81396484375,515.31982421875,-42.359375,32.71875,-58.8125,384920.36,1728493599237,1904
809.326171875,-19.287109375,498.35205078125,-30.0625,57.234375,-62.625,384924.83,1728493599237,1904
854.8583984375,-1.03759765625,503.11279296875,-24.734375,102.65625,-65.71875,384929.29,1728493599237,1904
874.755859375,-24.4140625,568.05419921875,-26.6875,111.8125,-64.4375,384933.75,1728493599237,1904
906.55517578125,-13.7939453125,617.00439453125,-14.265625,107.515625,-57.09375,384938.21,1728493599238,1904
860.29052734375,6.591796875,635.80322265625,-3.59375,99.609375,-51.578125,384942.67,1728493599238,1904
827.81982421875,24.84130859375,609.06982421875,-1.59375,99.375,-47.296875,384947.13,1728493599238,1904
857.91015625,54.5654296875,647.3388671875,7.28125,104.375,-39.5,384951.59,1728493599238,1904
866.63818359375,75.86669921875,682.861328125,9.1875,104.625,-31.390625,384956.05,1728493599239,1904
861.083984375,36.31591796875,725.5859375,2.875,98.0625,-19.421875,384960.51,1728493599239,1904
857.60498046875,65.5517578125,755.43212890625,0.984375,87.3125,-4.734375,384964.97,1728493599239,1904
821.59423828125,58.53271484375,740.29541015625,0.234375,73.890625,6.6875,384969.43,1728493599239,1904
782.04345703125,32.8369140625,694.27490234375,-5.0625,66.609375,14.203125,384973.89,1728493599240,1904
772.64404296875,0.79345703125,677.42919921875,-4.65625,63.5625,21.921875,384978.35,1728493599240,1904
759.94873046875,-14.892578125,672.4853515625,-7.953125,63.3125,24.171875,384982.81,1728493599241,1904
735.9619140625,-14.6484375,686.09619140625,-9.6875,65.5,24.640625,384987.27,1728493599242,1904
534.423828125,-42.96875,531.79931640625,-52.015625,26.640625,15.15625,385050.0,1728493599457,1905
383.544921875,-25.146484375,418.5791015625,-47.34375,72.4375,0.453125,385054.46,1728493599458,1905
292.236328125,-15.13671875,455.87158203125,-39.53125,124.734375,-24.921875,385058.92,1728493599458,1905
335.0830078125,-60.72998046875,642.88330078125,-41.53125,137.921875,-48.734375,385063.38,1728493599459,1905
437.98828125,-91.00341796875,761.71875,-51.578125,115.265625,-66.453125,385067.84,1728493599460,1905
524.10888671875,-101.37939453125,761.41357421875,-58.1875,85.65625,-76.625,385072.3,1728493599460,1905
737.85400390625,-93.07861328125,717.8955078125,-59.125,66.171875,-79.1875,385076.76,1728493599461,1905
1028.25927734375,-63.17138671875,706.4208984375,-58.265625,53.078125,-63.8125,385081.22,1728493599461,1905
1237.79296875,-15.625,686.4013671875,-57.40625,42.078125,-39.359375,385085.68,1728493599462,1905
1230.3466796875,-2.13623046875,648.92578125,-52.109375,34.859375,-11.796875,385090.14,1728493599462,1905
1030.1513671875,-1.28173828125,643.310546875,-46.453125,37.4375,5.390625,385094.6,1728493599463,1905
901.18408203125,-26.0009765625,665.71044921875,-42.703125,33.828125,13.125,385099.06,1728493599464,1905
775.32958984375,-56.09130859375,673.15673828125,-40.25,30.25,13.015625,385103.52,1728493599464,1905
755.67626953125,-60.546875,677.1240234375,-39.171875,27.359375,9.1875,385107.98,1728493599465,1905
745.42236328125,-59.75341796875,671.2646484375,-37.71875,27.546875,4.40625,385112.44,1728493599465,1905
754.82177734375,-50.9033203125,681.640625,-31.734375,32.0625,-0.671875,385116.9,1728493599466,1905
781.92138671875,-49.86572265625,695.556640625,-25.046875,40.171875,-4.140625,385121.36,1728493599466,1905
799.49951171875,-41.015625,711.669921875,-21.953125,47.53125,-7.21875,385125.83,1728493599467,1905
797.54638671875,-57.55615234375,720.3369140625,-24.296875,56.203125,-12.859375,385130.29,1728493599468,1905
762.3291015625,-69.9462890625,740.6005859375,-32.953125,65.21875,-21.828125,385134.75,1728493599468,1905
741.3330078125,-42.724609375,753.96728515625,-45.296875,70.21875,-29.5,385139.21,1728493599469,1905
732.23876953125,-39.0625,747.6806640625,-56.21875,73.40625,-32.734375,385143.67,1728493599469,1905
744.81201171875,-51.513671875,740.72265625,-67.171875,80.453125,-34.71875,385148.13,1728493599470,1905
764.16015625,-52.978515625,716.6748046875,-73.90625,89.625,-37.578125,385152.59,1728493599470,1905
763.61083984375,-63.17138671875,703.43017578125,-77.53125,96.515625,-40.78125,385157.05,1728493599471,1905
762.14599609375,-67.138671875,710.205078125,-84.3125,97.75,-43.5625,385161.51,1728493599472,1905
768.9208984375,-62.255859375,702.81982421875,-92.953125,95.9375,-44.34375,385165.97,1728493599472,1905
782.40966796875,-49.98779296875,687.19482421875,-102.03125,92.3125,-43.359375,385170.43,1728493599473,1905
766.6015625,-48.828125,671.69189453125,-107.328125,89.34375,-42.890625,385174.89,1728493599473,1905
763.916015625,-46.44775390625,662.41455078125,-113.328125,88.9375,-43.03125,385179.35,1728493599475,1905
755.79833984375,-32.71484375,649.71923828125,-119.96875,91.25,-45.1875,385183.81,1728493599475,1905
758.1787109375,-26.91650390625,660.58349609375,-125.984375,94.1875,-44.90625,385188.27,1728493599476,1905
716.796875,-97.35107421875,777.77099609375,-59.203125,35.1875,25.3125,385251.0,1728493599605,1906
695.068359375,-111.75537109375,776.91650390625,-53.140625,38.015625,28.859375,385255.46,1728493599605,1906
737.48779296875,-106.689453125,768.5546875,-45.5625,37.890625,32.078125,385259.92,1728493599605,1906
723.388671875,-107.72705078125,755.92041015625,-37.328125,37.796875,36.203125,385264.38,1728493599606,1906
717.7734375,-108.82568359375,750.42724609375,-30.53125,40.03125,37.0625,385268.84,1728493599606,1906
718.1396484375,-105.52978515625,741.88232421875,-25.390625,39.96875,36.75,385273.3,1728493599606,1906
706.35986328125,-100.4638671875,723.81591796875,-23.21875,41.21875,35.796875,385277.76,1728493599607,1906
706.48193359375,-104.248046875,712.646484375,-21.5,46.828125,35.109375,385282.22,1728493599607,1906
730.5908203125,-106.14013671875,710.87646484375,-19.0625,53.53125,33.34375,385286.68,1728493599607,1906
728.82080078125,-94.66552734375,716.00341796875,-13.6875,56.53125,31.6875,385291.14,1728493599607,1906
725.4638671875,-100.830078125,734.80224609375,-8.84375,63.421875,29.484375,385295.6,1728493599607,1906
728.33251953125,-99.67041015625,754.7607421875,-5.609375,70.453125,26.625,385300.06,1728493599608,1906
707.82470703125,-99.7314453125,764.34326171875,-1.609375,76.46875,24.265625,385304.52,1728493599608,1906
682.67822265625,-96.13037109375,761.29150390625,3.484375,81.53125,21.3125,385308.98,1728493599608,1906
658.63037109375,-97.59521484375,760.3759765625,8.140625,86.625,18.40625,385313.44,1728493599608,1906
655.3955078125,-109.130859375,779.72412109375,12.03125,91.984375,16.421875,385317.9,1728493599609,1906
646.484375,-103.69873046875,782.5927734375,18.09375,94.765625,15.640625,385322.36,1728493599609,1906
636.90185546875,-94.66552734375,792.17529296875,22.109375,94.6875,14.015625,385326.83,1728493599610,1906
632.2021484375,-91.00341796875,807.80029296875,25.953125,91.359375,11.984375,385331.29,1728493599610,1906
625.42724609375,-109.92431640625,840.6982421875,31.828125,83.375,9.265625,385335.75,1728493599610,1906
628.90625,-137.02392578125,894.775390625,44.4375,75.21875,7.171875,385340.21,1728493599610,1906
662.78076171875,-152.83203125,959.47265625,59.421875,73.546875,8.46875,385344.67,1728493599610,1906
710.205078125,-159.48486328125,1019.04296875,68.859375,78.859375,15.109375,385349.13,1728493599611,1906
722.35107421875,-167.6025390625,1052.978515625,70.140625,78.015625,24.296875,385353.59,1728493599611,1906
725.52490234375,-160.400390625,1066.10107421875,64.6875,60.4375,34.03125,385358.05,1728493599611,1906
687.43896484375,-155.57861328125,1034.0576171875,53.453125,36.4375,41.59375,385362.51,1728493599611,1906
665.71044921875,-140.80810546875,994.20166015625,43.53125,22.109375,44.671875,385366.97,1728493599611,1906
679.931640625,-127.8076171875,962.158203125,36.46875,17.765625,46.34375,385371.43,1728493599612,1906
691.10107421875,-136.1083984375,933.16650390625,30.4375,21.890625,47.921875,385375.89,1728493599612,1906
666.68701171875,-120.91064453125,902.4658203125,28.015625,34.875,46.875,385380.35,1728493599612,1906
703.125,-120.60546875,893.73779296875,26.734375,44.21875,47.296875,385384.81,1728493599612,1906
698.6083984375,-123.6572265625,892.88330078125,27.359375,48.46875,49.328125,385389.27,1728493599613,1906
569.9462890625,-118.95751953125,811.03515625,59.4375,49.984375,17.015625,385451.0,1728493599855,1907
558.77685546875,-134.521484375,834.47265625,63.234375,54.90625,13.34375,385455.46,1728493599855,1907
553.16162109375,-145.32470703125,861.81640625,66.65625,55.375,9.859375,385459.92,1728493599855,1907
551.1474609375,-150.2685546875,879.08935546875,70.046875,53.765625,8.140625,385464.38,1728493599855,1907
529.4189453125,-131.8359375,893.06640625,74.359375,46.671875,5.859375,385468.84,1728493599856,1907
514.46533203125,-119.9951171875,902.587890625,76.28125,37.65625,2.40625,385473.3,1728493599856,1907
507.8125,-112.79296875,903.564453125,75.8125,29.875,-1.546875,385477.76,1728493599856,1907
502.44140625,-111.9384765625,904.96826171875,75.96875,22.4375,-4.796875,385482.22,1728493599856,1907
502.44140625,-117.919921875,915.58837890625,76.09375,15.109375,-8.375,385486.68,1728493599856,1907
513.73291015625,-131.89697265625,932.9833984375,75.703125,7.140625,-12.09375,385491.14,1728493599857,1907
528.38134765625,-144.04296875,945.556640625,75.1875,-2.671875,-15.328125,385495.6,1728493599857,1907
547.54638671875,-148.37646484375,949.0966796875,74.609375,-12.53125,-18.203125,385500.06,1728493599857,1907
561.82861328125,-132.62939453125,943.359375,74.140625,-19.453125,-19.0625,385504.52,1728493599857,1907
570.80078125,-125.67138671875,939.02587890625,73.1875,-19.234375,-18.75,385508.98,1728493599858,1907
583.19091796875,-118.7744140625,929.62646484375,69.484375,-16.875,-18.359375,385513.44,1728493599858,1907
581.787109375,-112.73193359375,911.7431640625,66.9375,-13.015625,-17.65625,385517.9,1728493599858,1907
574.0966796875,-113.1591796875,903.13720703125,65.515625,-8.15625,-17.859375,385522.36,1728493599858,1907
559.08203125,-112.36572265625,894.775390625,66.015625,-1.859375,-17.640625,385526.83,1728493599859,1907
550.29296875,-122.86376953125,904.96826171875,65.25,7.03125,-18.546875,385531.29,1728493599859,1907
545.47119140625,-135.7421875,914.00146484375,64.015625,12.859375,-20.359375,385535.75,1728493599859,1907
535.2783203125,-132.01904296875,917.17529296875,63.5,14.90625,-23.0625,385540.21,1728493599859,1907
526.18408203125,-111.51123046875,915.52734375,65.0,14.8125,-24.421875,385544.67,1728493599860,1907
522.52197265625,-105.8349609375,909.3017578125,66.5625,13.59375,-24.75,385549.13,1728493599860,1907
524.59716796875,-116.69921875,904.35791015625,68.09375,12.5,-25.546875,385553.59,1728493599860,1907
517.2119140625,-122.55859375,908.63037109375,69.796875,12.234375,-26.390625,385558.05,1728493599860,1907
502.62451171875,-111.38916015625,904.47998046875,72.46875,11.84375,-26.75,385562.51,1728493599860,1907
471.0693359375,-116.8212890625,878.72314453125,73.671875,6.234375,-27.09375,385566.97,1728493599861,1907
457.8857421875,-117.24853515625,862.48779296875,78.03125,-9.828125,-30.03125,385571.43,1728493599861,1907
484.86328125,-85.3271484375,886.3525390625,83.296875,-22.46875,-33.34375,385575.89,1728493599861,1907
501.64794921875,-80.62744140625,898.3154296875,85.328125,-28.640625,-35.75,385580.35,1728493599861,1907
518.06640625,-85.38818359375,904.60205078125,86.71875,-31.609375,-37.015625,385584.81,1728493599862,1907
536.92626953125,-93.1396484375,915.6494140625,87.03125,-29.921875,-37.171875,385589.27,1728493599862,1907
455.50537109375,-46.875,916.259765625,64.859375,34.46875,-21.578125,385652.0,1728493600030,1908
458.251953125,-47.8515625,915.8935546875,68.0625,39.15625,-24.375,385656.46,1728493600030,1908
485.7177734375,-39.6728515625,898.62060546875,77.90625,43.609375,-23.71875,385660.92,1728493600031,1908
450.98876953125,-51.8798828125,880.79833984375,88.53125,48.796875,-23.203125,385665.38,1728493600031,1908
428.28369140625,-48.64501953125,891.78466796875,95.6875,55.015625,-27.515625,385669.84,1728493600031,1908
474.06005859375,-38.2080078125,922.05810546875,99.96875,56.78125,-29.28125,385674.3,1728493600031,1908
500.54931640625,-50.47607421875,938.90380859375,100.8125,56.0,-28.40625,385678.76,1728493600031,1908
472.71728515625,-75.439453125,941.34521484375,97.921875,51.78125,-29.3125,385683.22,1728493600032,1908
435.546875,-78.43017578125,942.9931640625,92.3125,46.515625,-33.84375,385687.68,1728493600032,1908
420.5322265625,-68.84765625,952.94189453125,86.421875,41.5,-39.203125,385692.14,1728493600032,1908
474.30419921875,-92.529296875,963.31787109375,76.625,35.5,-42.1875,385696.6,1728493600032,1908
506.53076171875,-155.029296875,1006.9580078125,52.765625,35.65625,-41.734375,385701.06,1728493600033,1908
588.8671875,-60.48583984375,1005.7373046875,56.28125,15.171875,-38.890625,385705.52,1728493600033,1908
704.833984375,-33.3251953125,953.7353515625,58.546875,-14.28125,-27.703125,385709.98,1728493600033,1908
650.32958984375,-51.025390625,981.75048828125,63.125,-6.734375,-15.25,385714.44,1728493600033,1908
603.57666015625,-57.373046875,1004.21142578125,61.203125,5.953125,-9.3125,385718.9,1728493600034,1908
579.58984375,-67.81005859375,984.31396484375,50.515625,25.5,-5.453125,385723.36,1728493600034,1908
544.43359375,5.859375,999.45068359375,52.609375,50.1875,-4.140625,385727.83,1728493600034,1908
540.95458984375,15.869140625,997.49755859375,66.6875,33.78125,-4.859375,385732.29,1728493600034,1908
494.68994140625,-18.6767578125,994.384765625,63.796875,28.890625,-2.75,385736.75,1728493600035,1908
461.85302734375,-20.44677734375,1012.6953125,66.09375,32.046875,-3.234375,385741.21,1728493600035,1908
445.61767578125,-21.97265625,1010.68115234375,65.40625,35.640625,-5.875,385745.67,1728493600035,1908
439.27001953125,-24.23095703125,1009.27734375,65.03125,39.75,-9.21875,385750.13,1728493600035,1908
459.89990234375,-19.71435546875,1005.2490234375,66.90625,40.828125,-11.78125,385754.59,1728493600036,1908
484.55810546875,-9.46044921875,1002.25830078125,69.203125,40.0,-12.703125,385759.05,1728493600036,1908
498.10791015625,0.244140625,1009.82666015625,68.421875,37.859375,-12.625,385763.51,1728493600036,1908
515.93017578125,3.90625,1015.380859375,64.75,33.328125,-11.75,385767.97,1728493600036,1908
535.58349609375,3.96728515625,1010.498046875,61.5625,28.84375,-9.828125,385772.43,1728493600036,1908
526.4892578125,11.29150390625,1000.8544921875,58.84375,28.140625,-8.953125,385776.89,1728493600037,1908
481.689453125,29.84619140625,996.9482421875,53.359375,34.59375,-11.78125,385781.35,1728493600037,1908
549.13330078125,22.52197265625,1023.0712890625,56.84375,30.3125,-10.90625,385785.81,1728493600038,1908
546.56982421875,16.54052734375,1019.1650390625,54.421875,34.59375,-6.734375,385790.27,1728493600038,1908
456.72607421875,25.7568359375,1031.06689453125,58.25,0.921875,-9.109375,385852.0,1728493600255,1909
461.24267578125,33.26416015625,1047.79052734375,58.46875,-8.015625,-4.78125,385856.46,1728493600255,1909
429.62646484375,34.66796875,1069.580078125,55.75,-14.828125,-0.84375,385860.92,1728493600255,1909
381.40869140625,24.90234375,1090.27099609375,48.234375,-20.921875,-0.984375,385865.38,1728493600255,1909
380.615234375,9.8876953125,1086.5478515625,41.609375,-30.71875,-2.0,385869.84,1728493600256,1909
373.6572265625,10.43701171875,1081.11572265625,36.046875,-41.515625,-1.328125,385874.3,1728493600256,1909
351.9287109375,28.99169921875,1083.740234375,26.6875,-48.6875,-3.96875,385878.76,1728493600256,1909
360.595703125,34.97314453125,1061.09619140625,18.0,-52.84375,-7.640625,385883.22,1728493600256,1909
366.455078125,27.34375,1039.4287109375,14.1875,-53.046875,-10.09375,385887.68,1728493600257,1909
360.3515625,16.845703125,1039.1845703125,8.3125,-51.09375,-13.96875,385892.14,1728493600257,1909
384.521484375,40.34423828125,1002.3193359375,5.75,-44.890625,-15.28125,385896.6,1728493600257,1909
417.90771484375,75.74462890625,945.80078125,8.953125,-29.171875,-12.59375,385901.06,1728493600257,1909
435.48583984375,82.3974609375,888.97705078125,13.953125,-13.453125,-13.46875,385905.52,1728493600258,1909
495.91064453125,74.5849609375,862.79296875,22.828125,-6.203125,-9.546875,385909.98,1728493600258,1909
485.7177734375,51.513671875,893.00537109375,26.25,-8.015625,-7.53125,385914.44,1728493600258,1909
503.23486328125,50.4150390625,920.166015625,25.359375,-17.375,-4.34375,385918.9,1728493600258,1909
459.04541015625,92.22412109375,934.87548828125,28.828125,-20.234375,0.5,385923.36,1728493600259,1909
402.4658203125,97.16796875,969.970703125,28.265625,-19.4375,1.640625,385927.83,1728493600259,1909
361.572265625,66.162109375,988.8916015625,26.421875,-17.5625,-0.0625,385932.29,1728493600259,1909
351.4404296875,43.701171875,1003.47900390625,23.1875,-16.5,-2.546875,385936.75,1728493600259,1909
343.93310546875,17.88330078125,1010.80322265625,18.90625,-14.734375,-5.46875,385941.21,1728493600260,1909
338.7451171875,17.88330078125,1015.19775390625,12.015625,-14.875,-9.328125,385945.67,1728493600260,1909
395.99609375,28.25927734375,1007.080078125,5.953125,-18.65625,-9.34375,385950.13,1728493600260,1909
404.78515625,57.6171875,984.55810546875,3.734375,-21.65625,-6.28125,385954.59,1728493600260,1909
399.5361328125,62.07275390625,970.76416015625,1.25,-20.90625,-4.84375,385959.05,1728493600260,1909
388.48876953125,71.8994140625,943.2373046875,2.3125,-17.484375,-3.53125,385963.51,1728493600261,1909
418.39599609375,64.8193359375,933.41064453125,3.609375,-13.09375,-3.09375,385967.97,1728493600261,1909
458.55712890625,61.09619140625,923.03466796875,5.734375,-12.765625,0.828125,385972.43,1728493600261,1909
478.94287109375,61.70654296875,938.5986328125,6.09375,-12.53125,5.0625,385976.89,1728493600261,1909
497.55859375,84.04541015625,936.1572265625,8.328125,-14.046875,10.671875,385981.35,1728493600261,1909
491.3330078125,82.33642578125,951.66015625,9.0625,-13.1875,14.140625,385985.81,1728493600262,1909
492.73681640625,64.208984375,961.7919921875,7.390625,-12.875,16.796875,385990.27,1728493600262,1909
458.92333984375,11.53564453125,979.8583984375,-13.1875,-23.078125,19.546875,386053.0,1728493600455,1910
443.84765625,-1.89208984375,1001.3427734375,-14.953125,-14.734375,21.703125,386057.46,1728493600455,1910
472.412109375,-38.818359375,1007.080078125,-18.953125,-8.359375,24.078125,386061.92,1728493600455,1910
495.2392578125,-26.9775390625,1010.25390625,-18.84375,-4.8125,30.53125,386066.38,1728493600456,1910
450.98876953125,33.26416015625,1019.4091796875,-17.9375,-0.28125,34.984375,386070.84,1728493600456,1910
445.3125,35.33935546875,1009.033203125,-18.71875,-3.84375,35.65625,386075.3,1728493600456,1910
450.68359375,-22.8271484375,1006.89697265625,-19.453125,-7.484375,39.921875,386079.76,1728493600456,1910
450.74462890625,-21.484375,1005.615234375,-18.9375,-3.953125,43.71875,386084.22,1728493600457,1910
417.3583984375,-18.310546875,994.81201171875,-18.984375,-0.796875,43.859375,386088.68,1728493600457,1910
403.4423828125,-24.658203125,977.9052734375,-20.046875,0.828125,41.078125,386093.14,1728493600457,1910
408.14208984375,-23.193359375,942.87109375,-19.46875,-6.28125,38.828125,386097.6,1728493600457,1910
420.10498046875,-29.35791015625,947.20458984375,-16.640625,-12.65625,38.921875,386102.06,1728493600458,1910
379.94384765625,4.08935546875,948.42529296875,-16.46875,-12.078125,36.53125,386106.52,1728493600458,1910
366.0888671875,16.6015625,910.7666015625,-16.171875,-17.671875,30.1875,386110.98,1728493600458,1910
405.1513671875,-21.78955078125,918.212890625,-12.1875,-21.71875,29.578125,386115.44,1728493600458,1910
403.38134765625,1.15966796875,946.1669921875,-9.78125,-21.859375,27.875,386119.9,1728493600458,1910
398.3154296875,-20.263671875,953.369140625,-7.6875,-21.796875,25.953125,386124.36,1728493600459,1910
451.96533203125,-23.49853515625,974.67041015625,-4.140625,-21.78125,26.640625,386128.83,1728493600459,1910
431.640625,-18.37158203125,963.0126953125,-3.765625,-18.609375,26.546875,386133.29,1728493600459,1910
440.3076171875,-36.376953125,950.37841796875,-1.4375,-18.4375,27.5625,386137.75,1728493600459,1910
417.48046875,-29.47998046875,900.2685546875,2.234375,-17.3125,27.734375,386142.21,1728493600459,1910
372.0703125,-16.6015625,846.98486328125,10.25,-26.09375,25.109375,386146.67,1728493600459,1910
360.04638671875,-14.09912109375,778.076171875,25.34375,-51.09375,18.59375,386151.13,1728493600460,1910
407.65380859375,-86.73095703125,825.01220703125,45.3125,-73.203125,17.875,386155.59,1728493600461,1910
492.431640625,-98.2666015625,986.572265625,56.265625,-63.8125,20.46875,386160.05,1728493600461,1910
494.62890625,-112.3046875,1249.20654296875,50.9375,-16.0625,22.09375,386164.51,1728493600461,1910
342.041015625,-120.17822265625,1167.48046875,18.40625,24.40625,18.90625,386168.97,1728493600461,1910
309.6923828125,-138.3056640625,1008.1787109375,12.3125,3.640625,10.421875,386173.43,1728493600461,1910
423.76708984375,-48.9501953125,938.17138671875,16.390625,-0.4375,6.375,386177.89,1728493600462,1910
430.72509765625,4.94384765625,858.3984375,19.078125,14.09375,9.015625,386182.35,1728493600462,1910
379.21142578125,-26.18408203125,859.80224609375,15.109375,22.75,9.078125,386186.81,1728493600462,1910
351.806640625,-55.419921875,906.43310546875,12.296875,25.921875,6.8125,386191.27,1728493600462,1910
428.7109375,-21.3623046875,903.3203125,20.171875,22.71875,-8.25,386254.0,1728493600605,1911
444.7021484375,-31.494140625,929.6875,20.421875,24.984375,-7.953125,386258.46,1728493600605,1911
423.64501953125,-29.84619140625,923.88916015625,17.359375,28.203125,-6.640625,386262.92,1728493600605,1911
401.0009765625,-36.56005859375,915.83251953125,16.953125,31.546875,-7.9375,386267.38,1728493600606,1911
383.7890625,-39.9169921875,919.43359375,14.765625,30.359375,-9.796875,386271.84,1728493600606,1911
369.5068359375,-41.3818359375,932.4951171875,12.796875,29.625,-11.9375,386276.3,1728493600606,1911
380.126953125,-34.912109375,959.65576171875,10.640625,30.4375,-14.46875,386280.76,1728493600606,1911
379.5166015625,-48.828125,966.00341796875,9.78125,23.21875,-14.84375,386285.22,1728493600607,1911
358.154296875,-56.396484375,935.6689453125,9.953125,21.3125,-15.953125,386289.68,1728493600607,1911
459.228515625,-51.45263671875,984.4970703125,9.9375,15.8125,-15.015625,386294.14,1728493600607,1911
479.4921875,-59.4482421875,960.0830078125,10.9375,8.703125,-9.40625,386298.6,1728493600607,1911
455.38330078125,-55.5419921875,965.2099609375,12.625,2.578125,-4.3125,386303.06,1728493600607,1911
439.453125,-59.5703125,947.93701171875,12.96875,-0.75,0.46875,386307.52,1728493600608,1911
426.26953125,-66.7724609375,929.443359375,14.6875,-3.78125,4.203125,386311.98,1728493600608,1911
392.51708984375,-68.359375,914.61181640625,16.625,-3.46875,5.140625,386316.44,1728493600608,1911
397.705078125,-69.03076171875,903.4423828125,18.03125,1.234375,3.875,386320.9,1728493600608,1911
440.00244140625,-74.5849609375,882.38525390625,19.59375,1.296875,3.390625,386325.36,1728493600609,1911
431.7626953125,-66.71142578125,906.8603515625,21.265625,0.875,3.546875,386329.83,1728493600609,1911
410.15625,-63.8427734375,916.748046875,20.515625,7.734375,0.984375,386334.29,1728493600609,1911
428.22265625,-66.5283203125,890.9912109375,21.59375,12.1875,0.8125,386338.75,1728493600609,1911
466.61376953125,-71.10595703125,904.60205078125,24.53125,4.8125,4.21875,386343.21,1728493600610,1911
442.44384765625,-75.50048828125,922.119140625,25.390625,-0.296875,6.859375,386347.67,1728493600610,1911
439.88037109375,-85.02197265625,920.59326171875,25.25,-2.40625,8.25,386352.13,1728493600610,1911
439.697265625,-84.5947265625,925.537109375,26.484375,-3.96875,10.171875,386356.59,1728493600610,1911
439.0869140625,-85.44921875,938.3544921875,27.9375,-5.59375,11.484375,386361.05,1728493600611,1911
423.64501953125,-83.92333984375,945.068359375,28.703125,-5.234375,12.453125,386365.51,1728493600611,1911
441.89453125,-92.46826171875,945.556640625,29.8125,-5.078125,12.546875,386369.97,1728493600611,1911
447.1435546875,-93.3837890625,947.93701171875,30.40625,-6.203125,13.671875,386374.43,1728493600611,1911
415.22216796875,-86.7919921875,960.75439453125,31.5625,-7.15625,13.6875,386378.89,1728493600611,1911
380.92041015625,-78.67431640625,969.78759765625,31.953125,-4.78125,12.75,386383.35,1728493600611,1911
401.611328125,-72.1435546875,964.35546875,31.65625,-2.796875,11.609375,386387.81,1728493600612,1911
419.677734375,-68.90869140625,952.33154296875,32.59375,-6.09375,12.921875,386392.27,1728493600612,1911
447.08251953125,-74.0966796875,950.1953125,35.75,-50.484375,1.671875,386454.0,1728493600830,1912
438.29345703125,-67.44384765625,961.97509765625,37.125,-49.53125,2.3125,386458.46,1728493600830,1912
434.4482421875,-50.23193359375,961.48681640625,38.375,-51.4375,3.6875,386462.92,1728493600831,1912
419.00634765625,-46.7529296875,954.89501953125,40.4375,-55.421875,5.09375,386467.38,1728493600831,1912
398.3154296875,-52.1240234375,944.76318359375,42.953125,-60.984375,5.484375,386471.84,1728493600831,1912
389.0380859375,-56.57958984375,938.720703125,45.21875,-66.84375,4.171875,386476.3,1728493600831,1912
386.71875,-57.861328125,934.02099609375,47.265625,-71.46875,3.03125,386480.76,1728493600831,1912
392.578125,-64.0869140625,927.79541015625,49.25,-75.0625,1.609375,386485.22,1728493600832,1912
407.77587890625,-66.22314453125,958.1298828125,50.171875,-78.328125,-0.546875,386489.68,1728493600832,1912
401.611328125,-83.984375,970.64208984375,49.15625,-77.171875,-3.953125,386494.14,1728493600832,1912
419.677734375,-85.14404296875,991.943359375,48.171875,-69.109375,-6.96875,386498.6,1728493600832,1912
472.65625,-68.9697265625,948.2421875,47.59375,-61.8125,-7.890625,386503.06,1728493600833,1912
473.388671875,-87.95166015625,933.16650390625,53.359375,-62.046875,-5.5625,386507.52,1728493600833,1912
422.91259765625,-90.75927734375,941.40625,56.28125,-64.734375,-5.46875,386511.98,1728493600833,1912
411.92626953125,-84.04541015625,929.0771484375,59.15625,-71.4375,-5.65625,386516.44,1728493600833,1912
417.1142578125,-87.34130859375,947.32666015625,61.78125,-76.796875,-5.65625,386520.9,1728493600834,1912
402.34375,-82.03125,952.69775390625,62.640625,-80.171875,-6.28125,386525.36,1728493600834,1912
386.04736328125,-60.36376953125,949.3408203125,65.84375,-88.515625,-7.53125,386529.83,1728493600834,1912
398.37646484375,-60.60791015625,985.3515625,67.921875,-98.0625,-8.828125,386534.29,1728493600834,1912
424.1943359375,-62.92724609375,999.0234375,66.53125,-101.640625,-9.609375,386538.75,1728493600835,1912
432.9833984375,-54.443359375,1031.73828125,65.765625,-103.453125,-10.5625,386543.21,1728493600835,1912
429.13818359375,-56.33544921875,1021.42333984375,66.0,-109.296875,-11.03125,386547.67,1728493600835,1912
394.95849609375,-58.349609375,955.078125,62.0,-90.0,-12.5625,386552.13,1728493600835,1912
411.4990234375,-42.724609375,1036.62109375,58.09375,-73.421875,-14.953125,386556.59,1728493600836,1912
410.70556640625,-60.72998046875,1062.6220703125,51.953125,-77.984375,-16.390625,386561.05,1728493600836,1912
376.8310546875,-76.5380859375,1089.111328125,48.515625,-94.421875,-18.21875,386565.51,1728493600836,1912
396.240234375,-48.7060546875,1026.123046875,42.171875,-106.234375,-20.765625,386569.97,1728493600836,1912
445.80078125,-11.16943359375,1015.2587890625,40.109375,-94.390625,-21.109375,386574.43,1728493600837,1912
426.57470703125,-27.03857421875,1106.201171875,36.96875,-102.46875,-21.1875,386578.89,1728493600837,1912
393.798828125,-48.583984375,1155.517578125,32.875,-135.84375,-22.0,386583.35,1728493600837,1912
450.8056640625,-24.84130859375,1120.361328125,24.6875,-162.421875,-21.015625,386587.81,1728493600837,1912
528.076171875,29.78515625,1102.11181640625,20.015625,-166.8125,-15.6875,386592.27,1728493600838,1912
566.46728515625,51.26953125,838.56201171875,43.28125,-162.375,5.203125,386655.0,1728493601029,1913
560.48583984375,29.541015625,924.4384765625,47.25,-159.09375,5.484375,386659.46,1728493601031,1913
560.05859375,20.20263671875,862.48779296875,45.546875,-168.953125,8.296875,386663.92,1728493601031,1913
573.54736328125,44.86083984375,793.88427734375,40.25,-146.78125,11.125,386668.38,1728493601031,1913
569.580078125,73.3642578125,887.3291015625,44.53125,-133.125,9.453125,386672.84,1728493601031,1913
554.8095703125,46.08154296875,940.61279296875,40.546875,-145.6875,10.171875,386677.3,1728493601031,1913
564.14794921875,52.18505859375,903.80859375,36.8125,-139.53125,11.140625,386681.76,1728493601031,1913
578.06396484375,56.94580078125,933.349609375,37.390625,-140.609375,9.421875,386686.22,1728493601031,1913
580.2001953125,65.0634765625,890.56396484375,35.75,-138.703125,8.078125,386690.68,1728493601032,1913
573.8525390625,67.19970703125,877.5634765625,32.875,-126.6875,4.703125,386695.14,1728493601032,1913
591.24755859375,61.46240234375,918.0908203125,33.296875,-118.296875,2.328125,386699.6,1728493601032,1913
600.28076171875,55.35888671875,919.7998046875,27.65625,-108.265625,-0.03125,386704.06,1728493601032,1913
611.572265625,54.6875,895.01953125,24.296875,-100.359375,-1.375,386708.52,1728493601033,1913
622.98583984375,51.6357421875,874.93896484375,19.875,-96.828125,-1.921875,386712.98,1728493601033,1913
624.3896484375,65.185546875,920.95947265625,19.46875,-90.21875,-2.671875,386717.44,1728493601033,1913
607.84912109375,56.15234375,948.30322265625,17.03125,-79.84375,-4.984375,386721.9,1728493601033,1913
624.6337890625,42.8466796875,940.00244140625,11.21875,-79.078125,-7.03125,386726.36,1728493601034,1913
728.57666015625,88.19580078125,899.84130859375,4.65625,-75.875,-15.015625,386730.83,1728493601034,1913
806.21337890625,112.85400390625,819.88525390625,-11.25,-53.4375,-24.703125,386735.29,1728493601034,1913
717.8955078125,62.6220703125,838.8671875,-24.421875,-33.453125,-23.5,386739.75,1728493601034,1913
503.96728515625,29.84619140625,911.19384765625,-21.65625,-39.0625,-13.984375,386744.21,1728493601035,1913
347.59521484375,74.8291015625,894.34814453125,-19.75,-42.09375,-15.5,386748.67,1728493601035,1913
477.35595703125,36.7431640625,837.34130859375,-24.140625,-27.15625,-24.78125,386753.13,1728493601035,1913
589.05029296875,-7.2021484375,852.05078125,-20.296875,-20.09375,-24.265625,386757.59,1728493601035,1913
586.48681640625,6.77490234375,861.99951171875,-11.671875,-19.671875,-22.984375,386762.05,1728493601036,1913
582.58056640625,-3.173828125,876.52587890625,-1.171875,-24.765625,-20.875,386766.51,1728493601036,1913
594.23828125,-0.1220703125,887.51220703125,6.0625,-28.265625,-18.203125,386770.97,1728493601036,1913
600.2197265625,30.517578125,882.080078125,12.859375,-31.125,-17.359375,386775.43,1728493601036,1913
624.8779296875,37.65869140625,888.12255859375,16.453125,-29.359375,-17.40625,386779.89,1728493601037,1913
622.0703125,64.3310546875,842.10205078125,22.796875,-33.1875,-21.96875,386784.35,1728493601037,1913
649.47509765625,-14.46533203125,837.890625,22.265625,-32.546875,-21.90625,386788.81,1728493601037,1913
645.01953125,-51.513671875,913.9404296875,13.65625,-23.734375,-20.96875,386793.27,1728493601037,1913
547.7294921875,32.958984375,856.75048828125,-1.203125,-48.453125,0.03125,386856.0,1728493601255,1914
583.55712890625,-20.44677734375,841.85791015625,-4.59375,-48.15625,1.328125,386860.46,1728493601255,1914
602.60009765625,-16.17431640625,826.11083984375,-2.546875,-48.125,1.90625,386864.92,1728493601255,1914
609.375,-9.46044921875,821.10595703125,1.046875,-50.5625,3.921875,386869.38,1728493601255,1914
580.078125,10.1318359375,810.302734375,3.6875,-48.625,3.78125,386873.84,1728493601255,1914
607.5439453125,-1.28173828125,797.05810546875,7.375,-58.71875,5.203125,386878.3,1728493601256,1914
573.6083984375,5.55419921875,820.61767578125,13.1875,-65.484375,7.21875,386882.76,1728493601256,1914
563.8427734375,-2.25830078125,827.45361328125,12.46875,-61.0,5.609375,386887.22,1728493601256,1914
614.56298828125,-42.29736328125,818.84765625,12.734375,-61.390625,5.171875,386891.68,1728493601256,1914
590.33203125,2.01416015625,831.23779296875,15.015625,-61.15625,4.890625,386896.14,1728493601257,1914
509.33837890625,55.5419921875,833.3740234375,22.25,-51.4375,-4.53125,386900.6,1728493601257,1914
618.1640625,-28.99169921875,831.6650390625,17.828125,-46.109375,-8.625,386905.06,1728493601257,1914
665.52734375,-40.4052734375,843.994140625,15.171875,-53.453125,-3.0,386909.52,1728493601257,1914
613.70849609375,7.568359375,832.6416015625,22.765625,-61.71875,-3.96875,386913.98,1728493601258,1914
619.56787109375,17.333984375,831.97021484375,21.484375,-62.46875,-8.546875,386918.44,1728493601258,1914
628.7841796875,28.3203125,846.5576171875,12.71875,-56.328125,-12.5625,386922.9,1728493601258,1914
635.80322265625,16.41845703125,852.96630859375,3.03125,-50.109375,-17.1875,386927.36,1728493601258,1914
607.84912109375,-18.61572265625,870.4833984375,-12.09375,-51.609375,-25.40625,386931.83,1728493601259,1914
612.548828125,29.4189453125,838.56201171875,-21.875,-51.734375,-31.4375,386936.29,1728493601259,1914
633.7890625,40.4052734375,824.0966796875,-11.703125,-41.578125,-29.84375,386940.75,1728493601259,1914
646.17919921875,23.0712890625,853.57666015625,-1.734375,-35.703125,-26.65625,386945.21,1728493601259,1914
647.27783203125,-7.01904296875,859.68017578125,-4.046875,-33.125,-25.546875,386949.67,1728493601260,1914
623.1689453125,2.685546875,864.990234375,-2.59375,-32.71875,-26.53125,386954.13,1728493601260,1914
654.296875,-18.49365234375,845.0927734375,-1.859375,-33.71875,-26.40625,386958.59,1728493601260,1914
631.40869140625,12.87841796875,861.87744140625,3.71875,-34.984375,-23.65625,386963.05,1728493601260,1914
623.71826171875,2.44140625,860.04638671875,4.71875,-33.203125,-21.40625,386967.51,1728493601260,1914
581.54296875,33.38623046875,849.2431640625,5.65625,-28.1875,-21.140625,386971.97,1728493601261,1914
639.34326171875,-6.8359375,831.48193359375,2.921875,-31.390625,-20.578125,386976.43,1728493601261,1914
622.6806640625,3.0517578125,880.06591796875,13.453125,-36.0,-15.359375,386980.89,1728493601261,1914
582.94677734375,-15.07568359375,873.71826171875,24.390625,-40.203125,-12.078125,386985.35,1728493601261,1914
598.2666015625,-22.27783203125,862.3046875,24.5,-37.953125,-10.359375,386989.81,1728493601262,1914
600.28076171875,-6.7138671875,853.57666015625,31.328125,-35.5625,-10.515625,386994.27,1728493601262,1914
639.7705078125,13.48876953125,897.216796875,11.640625,-36.515625,-3.5,387056.0,1728493601405,1915
668.51806640625,-14.09912109375,879.39453125,6.046875,-37.21875,0.328125,387060.46,1728493601405,1915
636.04736328125,7.6904296875,862.9150390625,6.28125,-40.59375,3.125,387064.92,1728493601405,1915
627.38037109375,3.11279296875,838.07373046875,8.4375,-44.953125,3.59375,387069.38,1728493601406,1915
642.27294921875,-4.5166015625,834.89990234375,10.734375,-51.296875,6.53125,387073.84,1728493601406,1915
633.1787109375,-0.67138671875,852.05078125,13.03125,-53.5625,8.734375,387078.3,1728493601406,1915
623.35205078125,-0.48828125,852.35595703125,11.046875,-53.796875,9.671875,387082.76,1728493601406,1915
621.09375,13.00048828125,833.06884765625,10.96875,-50.734375,8.734375,387087.22,1728493601407,1915
640.13671875,9.82666015625,813.17138671875,6.671875,-42.40625,6.28125,387091.68,1728493601407,1915
644.95849609375,25.32958984375,814.27001953125,2.203125,-34.515625,3.59375,387096.14,1728493601407,1915
637.26806640625,21.05712890625,810.4248046875,1.71875,-29.015625,1.015625,387100.6,1728493601407,1915
637.939453125,-1.220703125,821.6552734375,-2.1875,-23.984375,-0.015625,387105.06,1728493601407,1915
625.6103515625,7.080078125,830.99365234375,-1.8125,-22.921875,-1.59375,387109.52,1728493601408,1915
629.82177734375,4.33349609375,826.66015625,-0.46875,-21.65625,-3.859375,387113.98,1728493601408,1915
645.93505859375,-8.4228515625,827.20947265625,-1.375,-19.109375,-4.515625,387118.44,1728493601408,1915
653.1982421875,-4.7607421875,836.181640625,-0.34375,-18.34375,-4.875,387122.9,1728493601408,1915
649.59716796875,-3.90625,831.60400390625,0.421875,-16.984375,-5.5625,387127.36,1728493601409,1915
645.8740234375,-6.77490234375,832.45849609375,1.328125,-16.1875,-5.109375,387131.83,1728493601409,1915
642.9443359375,-0.3662109375,839.53857421875,5.5625,-17.640625,-4.9375,387136.29,1728493601409,1915
635.6201171875,-9.27734375,835.5712890625,7.15625,-16.640625,-4.609375,387140.75,1728493601409,1915
634.58251953125,-4.57763671875,830.26123046875,8.65625,-16.78125,-3.8125,387145.21,1728493601410,1915
627.74658203125,20.751953125,835.5712890625,17.8125,-20.21875,-3.75,387149.67,1728493601410,1915
647.27783203125,-6.53076171875,854.55322265625,21.265625,-17.25,-2.203125,387154.13,1728493601410,1915
635.80322265625,-5.18798828125,853.8818359375,22.25,-13.46875,-0.265625,387158.59,1728493601410,1915
646.1181640625,3.60107421875,821.35009765625,20.515625,-10.875,-0.5625,387163.05,1728493601411,1915
650.69580078125,32.28759765625,834.5947265625,24.484375,-9.328125,-0.0625,387167.51,1728493601411,1915
626.3427734375,36.376953125,855.5908203125,30.953125,0.4375,1.3125,387171.97,1728493601411,1915
630.9814453125,34.912109375,824.0966796875,25.1875,4.015625,0.34375,387176.43,1728493601411,1915
656.494140625,39.36767578125,815.12451171875,24.265625,-9.3125,1.03125,387180.89,1728493601411,1915
622.6806640625,25.0244140625,840.33203125,27.5,-7.375,3.5625,387185.35,1728493601412,1915
586.73095703125,14.404296875,843.20068359375,18.703125,3.34375,3.015625,387189.81,1728493601412,1915
617.73681640625,21.6064453125,847.412109375,15.484375,0.875,2.09375,387194.27,1728493601412,1915
626.953125,15.7470703125,816.95556640625,-6.375,-22.109375,10.9375,387257.0,1728493601655,1916
631.7138671875,41.19873046875,832.1533203125,-2.234375,-27.203125,12.1875,387261.46,1728493601655,1916
629.150390625,32.16552734375,837.58544921875,-2.234375,-22.9375,12.859375,387265.92,1728493601656,1916
635.07080078125,6.89697265625,822.44873046875,-8.53125,-15.984375,14.625,387270.38,1728493601656,1916
627.38037109375,20.08056640625,820.4345703125,-4.03125,-15.109375,14.984375,387274.84,1728493601656,1916
634.33837890625,9.27734375,815.185546875,-3.515625,-17.125,16.109375,387279.3,1728493601656,1916
624.08447265625,8.85009765625,828.4912109375,0.09375,-20.421875,17.234375,387283.76,1728493601657,1916
616.27197265625,12.02392578125,834.89990234375,1.828125,-22.09375,16.578125,387288.22,1728493601657,1916
619.20166015625,12.14599609375,834.9609375,3.65625,-23.03125,15.59375,387292.68,1728493601657,1916
615.05126953125,13.427734375,835.99853515625,7.390625,-23.078125,14.25,387297.14,1728493601657,1916
610.2294921875,-1.89208984375,825.5615234375,6.578125,-19.734375,13.28125,387301.6,1728493601658,1916
614.68505859375,3.90625,848.57177734375,8.921875,-20.1875,12.0,387306.06,1728493601658,1916
641.66259765625,1.28173828125,860.107421875,10.171875,-22.375,11.171875,387310.52,1728493601658,1916
673.27880859375,-12.939453125,861.4501953125,9.5625,-25.0,12.421875,387314.98,1728493601658,1916
701.2939453125,-19.775390625,860.595703125,10.578125,-30.375,16.0,387319.44,1728493601659,1916
657.04345703125,20.8740234375,859.0087890625,16.703125,-34.3125,16.796875,387323.9,1728493601659,1916
629.94384765625,-8.4228515625,830.87158203125,15.921875,-29.484375,15.25,387328.36,1728493601659,1916
636.71875,-19.83642578125,842.34619140625,14.375,-26.3125,15.3125,387332.83,1728493601659,1916
669.73876953125,-19.95849609375,853.21044921875,18.4375,-33.953125,16.109375,387337.29,1728493601659,1916
683.837890625,-10.986328125,849.42626953125,22.578125,-40.203125,17.15625,387341.75,1728493601660,1916
694.2138671875,-20.6298828125,841.552734375,23.671875,-40.359375,18.390625,387346.21,1728493601660,1916
690.73486328125,-18.1884765625,852.11181640625,23.265625,-41.171875,21.359375,387350.67,1728493601660,1916
646.6064453125,14.16015625,858.642578125,28.140625,-41.546875,20.84375,387355.13,1728493601660,1916
658.203125,-5.55419921875,850.2197265625,27.546875,-40.984375,20.734375,387359.59,1728493601661,1916
699.70703125,-11.474609375,855.46875,26.375,-41.734375,23.015625,387364.05,1728493601661,1916
710.63232421875,10.80322265625,865.966796875,30.328125,-44.390625,24.40625,387368.51,1728493601661,1916
714.90478515625,4.94384765625,856.38427734375,30.671875,-43.75,25.625,387372.97,1728493601661,1916
685.9130859375,9.1552734375,846.19140625,30.78125,-40.765625,25.96875,387377.43,1728493601662,1916
686.95068359375,0.79345703125,844.78759765625,31.625,-40.0,25.21875,387381.89,1728493601662,1916
691.40625,3.84521484375,846.61865234375,33.625,-41.96875,24.953125,387386.35,1728493601662,1916
692.138671875,-2.86865234375,884.27734375,34.203125,-48.859375,23.671875,387390.81,1728493601662,1916
702.69775390625,-0.48828125,874.1455078125,31.890625,-63.125,21.890625,387395.27,1728493601663,1916
649.2919921875,-5.2490234375,801.20849609375,19.09375,-3.84375,2.15625,387458.0,1728493601805,1917
626.5869140625,5.9814453125,799.4384765625,17.875,-4.140625,0.359375,387462.46,1728493601805,1917
602.05078125,-1.8310546875,801.6357421875,17.125,1.421875,-3.46875,387466.92,1728493601805,1917
609.06982421875,-10.55908203125,813.17138671875,13.65625,10.9375,-6.5625,387471.38,1728493601806,1917
609.31396484375,-11.8408203125,822.57080078125,13.109375,14.953125,-8.140625,387475.84,1728493601806,1917
609.130859375,-9.70458984375,827.5146484375,13.09375,17.375,-10.375,387480.3,1728493601806,1917
611.26708984375,-3.2958984375,818.29833984375,14.09375,17.09375,-12.4375,387484.76,1728493601806,1917
604.00390625,-10.3759765625,821.22802734375,16.3125,22.46875,-13.578125,387489.22,1728493601807,1917
599.42626953125,-14.22119140625,823.1201171875,15.0625,31.859375,-16.84375,387493.68,1728493601807,1917
632.568359375,-6.28662109375,814.8193359375,17.171875,26.90625,-17.453125,387498.14,1728493601807,1917
616.8212890625,-0.30517578125,816.22314453125,23.59375,23.0,-18.875,387502.6,1728493601807,1917
633.23974609375,-18.49365234375,830.078125,21.8125,29.234375,-19.875,387507.06,1728493601808,1917
651.55029296875,-12.3291015625,830.56640625,23.625,24.375,-20.734375,387511.52,1728493601808,1917
651.79443359375,-17.822265625,827.08740234375,27.265625,16.078125,-19.75,387515.98,1728493601808,1917
653.80859375,-30.029296875,824.5849609375,27.859375,15.59375,-20.453125,387520.44,1728493601808,1917
660.46142578125,-27.52685546875,835.75439453125,26.625,16.3125,-19.3125,387524.9,1728493601808,1917
652.34375,-19.04296875,852.47802734375,26.53125,15.25,-17.8125,387529.36,1728493601809,1917
636.8408203125,-9.82666015625,849.853515625,26.359375,15.09375,-18.328125,387533.83,1728493601809,1917
621.7041015625,-8.544921875,837.646484375,25.828125,18.90625,-19.625,387538.29,1728493601809,1917
622.00927734375,-12.51220703125,830.01708984375,22.71875,26.53125,-20.96875,387542.75,1728493601809,1917
616.76025390625,-11.5966796875,842.95654296875,20.8125,31.515625,-20.1875,387547.21,1728493601810,1917
609.7412109375,-2.62451171875,854.98046875,21.875,31.765625,-21.8125,387551.67,1728493601810,1917
591.85791015625,-9.6435546875,847.96142578125,20.625,34.390625,-23.84375,387556.13,1728493601810,1917
571.96044921875,-16.41845703125,847.22900390625,16.90625,42.71875,-25.03125,387560.59,1728493601810,1917
585.38818359375,-46.32568359375,856.5673828125,11.375,47.28125,-24.609375,387565.05,1728493601811,1917
606.99462890625,-26.79443359375,874.3896484375,8.875,43.109375,-22.578125,387569.51,1728493601811,1917
635.6201171875,-13.7939453125,882.87353515625,9.515625,30.015625,-20.203125,387573.97,1728493601812,1917
601.25732421875,-12.939453125,889.5263671875,8.109375,30.125,-19.03125,387578.43,1728493601812,1917
601.1962890625,-43.0908203125,874.6337890625,1.5,42.84375,-19.328125,387582.89,1728493601812,1917
624.93896484375,-44.12841796875,903.3203125,-4.78125,49.453125,-16.875,387587.35,1728493601812,1917
632.87353515625,-27.52685546875,898.3154296875,-7.5625,44.984375,-15.3125,387591.81,1728493601813,1917
636.16943359375,-48.828125,839.78271484375,-3.734375,41.515625,-12.5625,387596.27,1728493601813,1917
541.93115234375,-32.89794921875,902.89306640625,4.546875,37.875,-8.84375,387658.0,1728493602030,1918
588.9892578125,-36.1328125,955.38330078125,2.90625,37.875,-6.75,387662.46,1728493602030,1918
563.96484375,-41.015625,927.55126953125,0.515625,31.6875,-1.65625,387666.92,1728493602031,1918
546.142578125,-47.91259765625,900.634765625,1.15625,27.421875,2.703125,387671.38,1728493602031,1918
566.46728515625,-25.87890625,895.5078125,3.609375,24.125,5.5,387675.84,1728493602031,1918
597.47314453125,-39.97802734375,894.22607421875,3.421875,17.078125,8.75,387680.3,1728493602031,1918
600.7080078125,-31.1279296875,897.64404296875,3.84375,5.359375,14.0625,387684.76,1728493602031,1918
585.99853515625,-43.212890625,917.05322265625,2.21875,1.390625,16.71875,387689.22,1728493602032,1918
629.0283203125,-33.14208984375,927.18505859375,-3.125,9.0,18.4375,387693.68,1728493602032,1918
616.3330078125,-52.91748046875,930.6640625,-4.171875,9.453125,21.265625,387698.14,1728493602032,1918
550.72021484375,-78.857421875,930.7861328125,-4.53125,8.234375,21.734375,387702.6,1728493602032,1918
588.7451171875,-69.091796875,900.146484375,-5.046875,16.515625,19.15625,387707.06,1728493602033,1918
630.55419921875,-57.2509765625,887.87841796875,-4.546875,20.25,20.21875,387711.52,1728493602033,1918
670.2880859375,-49.072265625,885.68115234375,-1.34375,18.265625,23.078125,387715.98,1728493602033,1918
661.4990234375,-53.03955078125,897.5830078125,3.765625,17.8125,24.421875,387720.44,1728493602033,1918
645.3857421875,-74.8291015625,908.14208984375,5.625,14.984375,27.0,387724.9,1728493602034,1918
623.53515625,-76.84326171875,906.31103515625,4.546875,13.65625,30.28125,387729.36,1728493602034,1918
622.0703125,-62.5,922.607421875,2.59375,13.25,32.0625,387733.83,1728493602034,1918
621.09375,-67.56591796875,944.7021484375,0.90625,9.0625,33.171875,387738.29,1728493602034,1918
601.25732421875,-71.22802734375,944.091796875,-1.234375,5.421875,35.15625,387742.75,1728493602035,1918
549.86572265625,-80.50537109375,939.8193359375,-4.828125,10.453125,36.09375,387747.21,1728493602035,1918
553.3447265625,-48.15673828125,939.5751953125,-6.046875,18.375,32.59375,387751.67,1728493602035,1918
565.5517578125,-42.41943359375,913.75732421875,-3.171875,17.8125,31.203125,387756.13,1728493602035,1918
568.29833984375,-48.583984375,920.83740234375,-0.421875,17.96875,30.359375,387760.59,1728493602035,1918
575.8056640625,-54.62646484375,912.7197265625,1.140625,16.03125,29.984375,387765.05,1728493602036,1918
575.927734375,-48.9501953125,903.80859375,3.046875,11.328125,28.578125,387769.51,1728493602036,1918
575.62255859375,-51.08642578125,903.62548828125,4.6875,3.65625,26.859375,387773.97,1728493602036,1918
558.349609375,-55.35888671875,909.85107421875,5.0,-2.140625,24.609375,387778.43,1728493602036,1918
546.2646484375,-52.30712890625,921.93603515625,5.15625,-5.015625,20.640625,387782.89,1728493602037,1918
544.00634765625,-48.2177734375,924.86572265625,5.265625,-8.015625,16.84375,387787.35,1728493602037,1918
554.19921875,-49.62158203125,926.26953125,5.421875,-15.921875,14.71875,387791.81,1728493602037,1918
561.5234375,-43.45703125,928.64990234375,6.140625,-28.9375,13.46875,387796.27,1728493602037,1918
513.36669921875,-51.26953125,902.52685546875,53.015625,-8.890625,-12.421875,387859.0,1728493602255,1919
516.845703125,-38.4521484375,906.92138671875,54.765625,-11.5625,-12.609375,387863.46,1728493602256,1919
518.310546875,-48.828125,906.982421875,56.03125,-14.296875,-11.1875,387867.92,1728493602256,1919
513.24462890625,-50.4150390625,915.22216796875,56.890625,-13.78125,-10.515625,387872.38,1728493602256,1919
515.13671875,-50.1708984375,933.10546875,58.34375,-13.75,-10.75,387876.84,1728493602256,1919
520.69091796875,-50.10986328125,938.17138671875,60.078125,-15.4375,-8.921875,387881.3,1728493602256,1919
521.240234375,-54.62646484375,936.82861328125,62.390625,-18.40625,-6.578125,387885.76,1728493602257,1919
515.869140625,-66.58935546875,917.78564453125,64.96875,-19.40625,-4.109375,387890.22,1728493602257,1919
519.59228515625,-69.39697265625,897.94921875,68.5625,-14.078125,-2.34375,387894.68,1728493602257,1919
519.22607421875,-53.8330078125,917.05322265625,73.375,-9.40625,-0.140625,387899.14,1728493602257,1919
501.708984375,-42.48046875,934.50927734375,76.75,-8.0,3.6875,387903.6,1728493602258,1919
465.14892578125,-45.95947265625,942.2607421875,79.109375,-2.71875,5.265625,387908.06,1728493602258,1919
483.58154296875,-47.05810546875,937.43896484375,80.8125,3.921875,3.953125,387912.52,1728493602258,1919
524.35302734375,-38.02490234375,920.59326171875,82.84375,6.703125,4.859375,387916.98,1728493602259,1919
495.2392578125,-52.91748046875,918.02978515625,84.96875,8.953125,6.0625,387921.44,1728493602259,1919
495.9716796875,-47.18017578125,940.00244140625,87.703125,9.34375,5.0,387925.9,1728493602259,1919
515.869140625,-40.6494140625,935.791015625,89.03125,8.484375,5.265625,387930.36,1728493602259,1919
522.39990234375,-40.8935546875,932.12890625,91.609375,12.765625,5.671875,387934.83,1728493602260,1919
564.8193359375,-36.865234375,953.06396484375,91.65625,27.0625,7.125,387939.29,1728493602260,1919
546.56982421875,-16.7236328125,948.2421875,90.046875,41.609375,8.5,387943.75,1728493602260,1919
493.65234375,-44.25048828125,965.4541015625,91.984375,50.21875,7.8125,387948.21,1728493602260,1919
424.49951171875,-48.88916015625,912.90283203125,91.296875,50.0625,4.25,387952.67,1728493602260,1919
426.57470703125,-53.16162109375,896.240234375,92.234375,43.359375,-0.375,387957.13,1728493602261,1919
430.60302734375,-33.69140625,912.65869140625,90.90625,46.96875,-4.703125,387961.59,1728493602261,1919
437.19482421875,1.46484375,923.828125,88.859375,55.25,-9.90625,387966.05,1728493602261,1919
478.21044921875,-4.39453125,911.19384765625,86.890625,59.140625,-13.34375,387970.51,1728493602261,1919
430.96923828125,-3.84521484375,895.3857421875,84.890625,52.890625,-14.328125,387974.97,1728493602261,1919
413.63525390625,12.51220703125,882.2021484375,84.90625,50.03125,-18.015625,387979.43,1728493602262,1919
426.45263671875,-4.638671875,881.7138671875,84.25,53.609375,-18.921875,387983.89,1728493602262,1919
418.3349609375,10.25390625,877.62451171875,83.71875,58.171875,-20.53125,387988.35,1728493602262,1919
413.26904296875,-3.84521484375,861.87744140625,84.484375,61.578125,-21.953125,387992.81,1728493602262,1919
430.6640625,-1.52587890625,868.5302734375,86.328125,66.375,-22.375,387997.27,1728493602263,1919
361.51123046875,10.19287109375,939.63623046875,68.390625,37.6875,-10.5625,388059.0,1728493602405,1920
364.8681640625,12.0849609375,925.23193359375,69.578125,37.09375,-6.25,388063.46,1728493602405,1920
389.892578125,18.5546875,898.0712890625,63.90625,36.96875,-5.640625,388067.92,1728493602405,1920
409.7900390625,7.32421875,898.98681640625,57.859375,36.15625,-7.234375,388072.38,1728493602406,1920
419.189453125,11.1083984375,899.96337890625,53.921875,36.625,-11.1875,388076.84,1728493602406,1920
409.85107421875,2.99072265625,909.0576171875,56.625,38.484375,-14.703125,388081.3,1728493602406,1920
420.83740234375,2.44140625,916.68701171875,62.375,41.3125,-17.796875,388085.76,1728493602406,1920
432.55615234375,7.62939453125,916.9921875,66.84375,43.625,-18.34375,388090.22,1728493602407,1920
448.2421875,16.66259765625,915.58837890625,68.859375,47.25,-18.015625,388094.68,1728493602407,1920
458.740234375,10.1318359375,931.7626953125,71.84375,51.4375,-17.21875,388099.14,1728493602407,1920
444.2138671875,15.31982421875,946.2890625,73.25,54.171875,-16.78125,388103.6,1728493602407,1920
424.6826171875,35.33935546875,960.0830078125,75.015625,58.609375,-17.65625,388108.06,1728493602408,1920
434.50927734375,27.2216796875,962.40234375,77.53125,62.0625,-23.140625,388112.52,1728493602408,1920
419.61669921875,5.67626953125,969.42138671875,77.171875,57.9375,-23.09375,388116.98,1728493602408,1920
378.60107421875,34.423828125,978.69873046875,77.328125,58.75,-22.296875,388121.44,1728493602408,1920
335.44921875,97.22900390625,990.17333984375,80.296875,62.578125,-28.796875,388125.9,1728493602408,1920
372.00927734375,72.998046875,989.92919921875,78.109375,65.125,-37.578125,388130.36,1728493602409,1920
396.8505859375,22.216796875,988.83056640625,69.109375,60.46875,-41.578125,388134.83,1728493602409,1920
418.76220703125,-22.64404296875,1004.39453125,65.390625,62.140625,-33.125,388139.29,1728493602409,1920
418.02978515625,23.5595703125,989.6240234375,58.390625,65.6875,-29.84375,388143.75,1728493602409,1920
387.51220703125,42.236328125,979.248046875,54.4375,63.03125,-27.6875,388148.21,1728493602410,1920
371.39892578125,63.720703125,1000.48828125,53.625,64.546875,-23.40625,388152.67,1728493602410,1920
383.056640625,65.36865234375,1005.55419921875,52.71875,71.546875,-16.28125,388157.13,1728493602410,1920
385.1318359375,54.62646484375,1005.31005859375,50.234375,75.25,-11.875,388161.59,1728493602411,1920
372.802734375,50.9033203125,1009.765625,49.515625,75.421875,-12.296875,388166.05,1728493602411,1920
354.736328125,70.86181640625,1015.5029296875,47.984375,75.234375,-10.6875,388170.51,1728493602411,1920
355.52978515625,74.40185546875,1024.5361328125,47.515625,78.53125,-7.4375,388174.97,1728493602411,1920
361.63330078125,76.171875,1035.888671875,45.4375,78.90625,-3.875,388179.43,1728493602412,1920
355.8349609375,68.66455078125,1040.1611328125,43.21875,77.890625,-0.15625,388183.89,1728493602412,1920
358.5205078125,70.00732421875,1036.68212890625,38.6875,78.046875,0.421875,388188.35,1728493602412,1920
345.947265625,75.37841796875,1044.25048828125,35.28125,79.671875,-0.296875,388192.81,1728493602412,1920
362.48779296875,58.2275390625,1046.69189453125,31.796875,80.765625,-2.90625,388197.27,1728493602412,1920
316.40625,53.7109375,1056.82373046875,-34.796875,34.9375,-33.25,388260.0,1728493602630,1921
283.3251953125,34.1796875,1050.35400390625,-20.265625,35.875,-28.453125,388264.46,1728493602630,1921
296.142578125,17.02880859375,1029.72412109375,-8.546875,31.703125,-25.078125,388268.92,1728493602631,1921
318.29833984375,32.89794921875,1019.53125,-10.0,29.921875,-18.890625,388273.38,1728493602631,1921
322.93701171875,35.46142578125,1024.84130859375,-11.53125,31.390625,-17.765625,388277.84,1728493602631,1921
320.068359375,34.5458984375,1033.447265625,-11.796875,32.328125,-17.8125,388282.3,1728493602631,1921
314.51416015625,25.390625,1042.96875,-9.453125,32.59375,-16.53125,388286.76,1728493602631,1921
307.80029296875,29.78515625,1050.72021484375,-5.828125,31.6875,-13.625,388291.22,1728493602632,1921
306.82373046875,29.23583984375,1059.99755859375,-1.28125,29.96875,-10.359375,388295.68,1728493602632,1921
313.232421875,33.935546875,1066.40625,2.765625,28.90625,-8.25,388300.14,1728493602632,1921
321.83837890625,31.494140625,1073.18115234375,4.6875,28.828125,-8.03125,388304.6,1728493602632,1921
328.06396484375,23.37646484375,1075.927734375,5.515625,29.765625,-8.671875,388309.06,1728493602632,1921
332.763671875,20.20263671875,1073.8525390625,5.9375,30.734375,-9.984375,388313.52,1728493602632,1921
337.21923828125,15.2587890625,1072.021484375,6.109375,31.78125,-11.671875,388317.98,1728493602633,1921
341.30859375,18.00537109375,1066.2841796875,5.28125,32.109375,-14.453125,388322.44,1728493602633,1921
343.56689453125,17.7001953125,1062.43896484375,3.609375,33.328125,-18.109375,388326.9,1728493602633,1921
334.9609375,9.6435546875,1057.861328125,2.96875,34.578125,-22.296875,388331.36,1728493602633,1921
323.79150390625,10.1318359375,1047.607421875,2.109375,34.40625,-25.796875,388335.83,1728493602634,1921
313.04931640625,16.11328125,1035.21728515625,0.0625,33.3125,-27.890625,388340.29,1728493602634,1921
306.884765625,18.73779296875,1024.169921875,-2.078125,31.265625,-28.484375,388344.75,1728493602634,1921
305.0537109375,28.74755859375,1015.07568359375,-6.609375,29.78125,-29.59375,388349.21,1728493602634,1921
302.91748046875,26.9775390625,1013.61083984375,-10.90625,29.5,-31.234375,388353.67,1728493602634,1921
300.84228515625,32.04345703125,1014.09912109375,-14.671875,28.78125,-32.765625,388358.13,1728493602635,1921
298.40087890625,30.029296875,1020.1416015625,-17.1875,27.9375,-34.625,388362.59,1728493602635,1921
295.59326171875,41.015625,1027.2216796875,-19.0,27.578125,-35.34375,388367.05,1728493602635,1921
291.6259765625,46.81396484375,1033.5693359375,-20.625,27.0,-34.859375,388371.51,1728493602635,1921
282.71484375,44.677734375,1041.68701171875,-20.484375,25.765625,-33.1875,388375.97,1728493602636,1921
274.0478515625,48.52294921875,1046.56982421875,-19.09375,24.359375,-31.59375,388380.43,1728493602636,1921
266.66259765625,49.13330078125,1049.01123046875,-17.046875,22.953125,-29.5625,388384.89,1728493602636,1921
262.939453125,47.119140625,1055.60302734375,-15.0,22.078125,-28.03125,388389.35,1728493602636,1921
262.14599609375,43.15185546875,1063.29345703125,-13.1875,21.125,-28.296875,388393.81,1728493602637,1921
263.7939453125,43.39599609375,1068.115234375,-12.1875,20.4375,-29.390625,388398.27,1728493602637,1921
184.87548828125,80.74951171875,1043.88427734375,-12.03125,9.84375,4.6875,388461.0,1728493602854,1922
176.33056640625,72.021484375,1061.09619140625,-8.859375,9.0,5.921875,388465.46,1728493602855,1922
181.45751953125,87.40234375,1071.1669921875,-5.375,8.15625,6.46875,388469.92,1728493602855,1922
180.7861328125,107.0556640625,1077.69775390625,-8.71875,8.140625,6.78125,388474.38,1728493602855,1922
166.1376953125,108.88671875,1079.2236328125,-18.0625,9.09375,6.890625,388478.84,1728493602855,1922
166.3818359375,78.18603515625,1078.91845703125,-20.453125,10.171875,6.453125,388483.3,1728493602856,1922
173.15673828125,104.67529296875,1092.34619140625,-14.59375,10.71875,6.015625,388487.76,1728493602856,1922
170.10498046875,129.5166015625,1086.73095703125,-13.5625,12.46875,7.78125,388492.22,1728493602856,1922
152.28271484375,85.5712890625,1091.064453125,-6.875,14.953125,10.203125,388496.68,1728493602856,1922
158.14208984375,65.673828125,1127.3193359375,17.921875,16.375,9.125,388501.14,1728493602856,1922
183.2275390625,89.17236328125,1146.91162109375,35.984375,19.234375,5.625,388505.6,1728493602857,1922
199.70703125,80.50537109375,1158.38623046875,41.734375,23.15625,-0.15625,388510.06,1728493602857,1922
206.4208984375,73.3642578125,1173.52294921875,44.03125,26.671875,-6.734375,388514.52,1728493602857,1922
210.5712890625,65.36865234375,1183.53271484375,45.40625,29.015625,-12.640625,388518.98,1728493602857,1922
212.7685546875,58.65478515625,1191.650390625,47.25,29.0625,-16.375,388523.44,1728493602858,1922
215.33203125,68.29833984375,1196.83837890625,48.21875,28.046875,-18.546875,388527.9,1728493602858,1922
220.27587890625,47.8515625,1223.876953125,56.03125,26.234375,-22.484375,388532.36,1728493602858,1922
238.09814453125,31.005859375,1262.5732421875,73.625,24.78125,-26.328125,388536.83,1728493602858,1922
250.3662109375,50.29296875,1281.73828125,84.40625,23.734375,-25.9375,388541.29,1728493602859,1922
249.08447265625,57.06787109375,1291.8701171875,86.765625,21.78125,-22.46875,388545.75,1728493602859,1922
239.19677734375,47.9736328125,1308.4716796875,87.578125,19.453125,-20.46875,388550.21,1728493602859,1922
228.759765625,37.78076171875,1319.51904296875,90.625,17.359375,-21.09375,388554.67,1728493602859,1922
228.759765625,36.92626953125,1329.1015625,97.21875,15.03125,-25.171875,388559.13,1728493602860,1922
269.4091796875,54.3212890625,1345.03173828125,105.921875,13.125,-17.796875,388563.59,1728493602861,1922
255.0048828125,40.34423828125,1350.03662109375,117.453125,10.875,-14.84375,388568.05,1728493602861,1922
265.13671875,15.380859375,1361.63330078125,126.984375,8.78125,-15.59375,388572.51,1728493602861,1922
284.85107421875,20.08056640625,1401.18408203125,141.0625,8.171875,-16.453125,388576.97,1728493602861,1922
301.8798828125,87.70751953125,1385.1318359375,134.921875,5.296875,-12.765625,388581.43,1728493602861,1922
292.724609375,61.279296875,1385.31494140625,122.5,2.0,-14.0625,388585.89,1728493602862,1922
274.35302734375,54.0771484375,1406.55517578125,125.359375,-0.3125,-18.1875,388590.35,1728493602862,1922
277.587890625,76.5380859375,1406.8603515625,125.28125,-3.46875,-21.078125,388594.81,1728493602862,1922
274.90234375,84.16748046875,1388.671875,120.734375,-6.484375,-21.296875,388599.27,1728493602862,1922
195.73974609375,122.74169921875,1246.76513671875,79.796875,-79.0,1.65625,388662.0,1728493603005,1923
193.66455078125,125.30517578125,1230.1025390625,79.703125,-83.921875,4.25,388666.46,1728493603005,1923
188.04931640625,127.9296875,1214.4775390625,79.671875,-88.75,7.5625,388670.92,1728493603005,1923
180.17578125,129.0283203125,1198.974609375,79.09375,-92.421875,11.1875,388675.38,1728493603006,1923
170.0439453125,127.25830078125,1177.978515625,79.0625,-95.59375,14.75,388679.84,1728493603006,1923
159.912109375,121.337890625,1158.63037109375,78.296875,-98.6875,19.265625,388684.3,1728493603006,1923
167.724609375,119.5068359375,1135.7421875,75.921875,-101.03125,25.4375,388688.76,1728493603006,1923
169.0673828125,117.67578125,1107.0556640625,75.5625,-102.640625,29.46875,388693.22,1728493603007,1923
179.38232421875,95.76416015625,1088.56201171875,74.75,-104.15625,34.71875,388697.68,1728493603007,1923
186.34033203125,112.60986328125,1051.3916015625,72.375,-104.84375,41.125,388702.14,1728493603007,1923
154.052734375,150.7568359375,1026.4892578125,75.03125,-104.796875,32.78125,388706.6,1728493603007,1923
176.08642578125,128.2958984375,1009.1552734375,74.140625,-105.59375,30.703125,388711.06,1728493603008,1923
149.658203125,133.9111328125,989.92919921875,72.5,-106.484375,26.140625,388715.52,1728493603008,1923
155.82275390625,137.87841796875,972.412109375,71.078125,-107.5,15.15625,388719.98,1728493603008,1923
173.7060546875,140.5029296875,951.904296875,68.90625,-108.5625,13.046875,388724.44,1728493603008,1923
171.20361328125,141.6015625,933.4716796875,67.578125,-109.328125,14.828125,388728.9,1728493603009,1923
167.8466796875,143.4326171875,914.9169921875,65.6875,-109.53125,14.890625,388733.36,1728493603009,1923
169.5556640625,146.97265625,896.3623046875,64.578125,-109.796875,12.03125,388737.83,1728493603009,1923
180.48095703125,147.76611328125,880.18798828125,63.796875,-108.40625,10.015625,388742.29,1728493603009,1923
186.46240234375,151.18408203125,863.28125,62.953125,-106.0625,8.984375,388746.75,1728493603010,1923
188.78173828125,153.4423828125,848.6328125,63.046875,-102.453125,8.34375,388751.21,1728493603010,1923
189.697265625,158.26416015625,833.0078125,62.953125,-98.765625,8.546875,388755.67,1728493603010,1923
189.3310546875,164.55078125,817.68798828125,62.828125,-95.484375,7.90625,388760.13,1728493603011,1923
189.5751953125,169.61669921875,801.69677734375,63.125,-92.375,7.71875,388764.59,1728493603011,1923
189.88037109375,176.45263671875,783.14208984375,63.09375,-88.65625,7.9375,388769.05,1728493603011,1923
191.71142578125,179.26025390625,771.30126953125,64.921875,-85.25,7.875,388773.51,1728493603011,1923
194.9462890625,179.8095703125,754.5166015625,66.71875,-82.140625,7.640625,388777.97,1728493603012,1923
191.650390625,185.791015625,720.76416015625,63.625,-80.53125,7.953125,388782.43,1728493603012,1923
192.93212890625,179.26025390625,700.13427734375,62.078125,-78.828125,7.4375,388786.89,1728493603012,1923
199.03564453125,179.13818359375,664.794921875,60.640625,-76.078125,7.21875,388791.35,1728493603012,1923
201.7822265625,173.4619140625,640.19775390625,59.90625,-73.046875,7.984375,388795.81,1728493603012,1923
204.833984375,171.9970703125,616.8212890625,59.09375,-69.8125,9.71875,388800.27,1728493603013,1923
261.77978515625,150.45166015625,499.51171875,35.609375,-28.734375,-1.671875,388862.0,1728493603230,1924
273.193359375,151.4892578125,484.80224609375,33.90625,-26.46875,-3.140625,388866.46,1728493603230,1924
283.87451171875,150.87890625,468.505859375,33.296875,-23.0,-4.390625,388870.92,1728493603230,1924
290.71044921875,153.6865234375,449.70703125,33.609375,-18.59375,-5.78125,388875.38,1728493603231,1924
294.98291015625,151.67236328125,426.8798828125,33.546875,-14.46875,-7.5,388879.84,1728493603231,1924
302.06298828125,154.11376953125,401.06201171875,32.703125,-9.28125,-9.46875,388884.3,1728493603231,1924
304.19921875,156.25,381.34765625,32.375,-3.625,-11.296875,388888.76,1728493603231,1924
299.4384765625,152.28271484375,352.35595703125,31.984375,2.09375,-14.21875,388893.22,1728493603232,1924
293.15185546875,152.52685546875,323.2421875,33.046875,9.234375,-17.125,388897.68,1728493603232,1924
284.3017578125,152.89306640625,295.166015625,33.484375,16.15625,-19.046875,388902.14,1728493603232,1924
272.3388671875,153.13720703125,263.3056640625,32.203125,23.109375,-20.296875,388906.6,1728493603232,1924
262.8173828125,150.93994140625,232.5439453125,30.0,30.984375,-22.28125,388911.06,1728493603233,1924
255.18798828125,153.80859375,207.45849609375,28.296875,40.0,-23.890625,388915.52,1728493603233,1924
245.66650390625,155.8837890625,185.1806640625,25.375,49.453125,-25.9375,388919.98,1728493603233,1924
238.037109375,158.203125,164.0625,22.796875,59.265625,-27.953125,388924.44,1728493603233,1924
234.9853515625,162.90283203125,158.75244140625,18.890625,69.765625,-29.203125,388928.9,1728493603233,1924
223.93798828125,163.63525390625,145.751953125,16.75,80.921875,-31.734375,388933.36,1728493603234,1924
207.51953125,161.56005859375,146.78955078125,16.734375,91.65625,-37.015625,388937.83,1728493603234,1924
181.0302734375,169.00634765625,163.6962890625,13.78125,103.984375,-46.859375,388942.29,1728493603234,1924
201.5380859375,149.59716796875,191.83349609375,2.859375,117.5625,-49.75,388946.75,1728493603234,1924
191.10107421875,122.6806640625,205.62744140625,-6.234375,130.171875,-47.78125,388951.21,1728493603235,1924
185.1806640625,86.3037109375,243.1640625,-15.84375,142.046875,-42.65625,388955.67,1728493603235,1924
145.32470703125,76.84326171875,291.50390625,-28.625,152.125,-36.453125,388960.13,1728493603235,1924
112.060546875,75.13427734375,351.806640625,-45.140625,158.890625,-35.078125,388964.59,1728493603235,1924
84.77783203125,80.01708984375,433.10546875,-55.84375,163.25,-35.546875,388969.05,1728493603236,1924
59.38720703125,65.4296875,549.560546875,-64.65625,163.734375,-36.59375,388973.51,1728493603236,1924
45.10498046875,63.65966796875,664.9169921875,-76.890625,159.109375,-35.5625,388977.97,1728493603236,1924
38.818359375,82.58056640625,783.447265625,-90.453125,151.1875,-32.515625,388982.43,1728493603236,1924
30.33447265625,88.134765625,909.0576171875,-111.09375,138.53125,-28.5625,388986.89,1728493603237,1924
16.78466796875,88.31787109375,1034.0576171875,-131.546875,121.796875,-24.625,388991.35,1728493603237,1924
8.85009765625,107.0556640625,1152.52685546875,-145.359375,103.203125,-20.484375,388995.81,1728493603237,1924
6.7138671875,128.47900390625,1245.30029296875,-159.3125,83.09375,-15.96875,389000.27,1728493603238,1924
85.02197265625,67.138671875,1684.2041015625,1.4375,77.71875,-31.265625,389063.0,1728493603455,1925
173.64501953125,80.38330078125,1693.29833984375,16.40625,81.359375,-26.578125,389067.46,1728493603455,1925
160.94970703125,64.02587890625,1693.29833984375,26.78125,82.640625,-24.6875,389071.92,1728493603455,1925
182.9833984375,63.53759765625,1670.8984375,33.71875,81.15625,-24.40625,389076.38,1728493603456,1925
197.32666015625,63.53759765625,1641.05224609375,37.90625,77.03125,-23.21875,389080.84,1728493603456,1925
201.2939453125,64.14794921875,1606.75048828125,41.125,71.4375,-21.875,389085.3,1728493603456,1925
193.359375,80.2001953125,1568.359375,43.453125,65.421875,-21.796875,389089.76,1728493603456,1925
169.73876953125,124.69482421875,1527.34375,47.375,58.015625,-30.53125,389094.22,1728493603457,1925
200.13427734375,15.56396484375,1468.81103515625,47.15625,47.5625,-26.203125,389098.68,1728493603457,1925
186.8896484375,41.015625,1447.44873046875,46.140625,40.96875,-18.609375,389103.14,1728493603457,1925
186.82861328125,69.88525390625,1427.001953125,47.484375,34.765625,-16.296875,389107.6,1728493603457,1925
194.9462890625,66.71142578125,1395.81298828125,48.0,28.96875,-13.453125,389112.06,1728493603458,1925
187.01171875,74.70703125,1380.67626953125,49.0,24.8125,-10.921875,389116.52,1728493603458,1925
177.06298828125,90.087890625,1367.98095703125,50.703125,21.6875,-8.96875,389120.98,1728493603458,1925
181.640625,109.06982421875,1359.06982421875,53.390625,22.21875,-8.6875,389125.44,1728493603458,1925
183.7158203125,100.40283203125,1339.53857421875,53.359375,20.015625,-11.015625,389129.9,1728493603459,1925
161.1328125,102.35595703125,1313.4765625,53.09375,14.859375,-12.609375,389134.36,1728493603459,1925
158.935546875,119.81201171875,1304.99267578125,52.453125,13.140625,-13.859375,389138.83,1728493603459,1925
147.94921875,139.58740234375,1288.818359375,51.921875,12.9375,-16.5,389143.29,1728493603459,1925
144.8974609375,148.681640625,1267.2119140625,51.109375,13.046875,-20.515625,389147.75,1728493603460,1925
136.41357421875,160.0341796875,1249.0234375,49.75,12.4375,-24.09375,389152.21,1728493603460,1925
138.61083984375,159.423828125,1222.2900390625,49.171875,13.5625,-27.09375,389156.67,1728493603460,1925
138.18359375,140.07568359375,1196.533203125,46.96875,13.75,-29.375,389161.13,1728493603460,1925
121.03271484375,144.71435546875,1176.57470703125,44.46875,12.515625,-30.8125,389165.59,1728493603460,1925
122.74169921875,139.7705078125,1161.0107421875,42.390625,12.234375,-32.78125,389170.05,1728493603461,1925
117.00439453125,143.85986328125,1147.27783203125,40.1875,13.03125,-33.6875,389174.51,1728493603461,1925
115.05126953125,145.08056640625,1134.1552734375,38.78125,13.296875,-35.5625,389178.97,1728493603461,1925
115.1123046875,130.4931640625,1122.4365234375,36.453125,12.03125,-35.03125,389183.43,1728493603461,1925
110.9619140625,144.4091796875,1116.51611328125,34.796875,10.71875,-36.734375,389187.89,1728493603461,1925
114.31884765625,120.91064453125,1105.28564453125,32.078125,8.265625,-37.125,389192.35,1728493603462,1925
114.74609375,129.150390625,1103.33251953125,28.8125,6.09375,-36.515625,389196.81,1728493603462,1925
122.4365234375,110.595703125,1102.23388671875,25.453125,2.75,-36.375,389201.27,1728493603463,1925
94.66552734375,112.24365234375,1080.810546875,26.8125,-28.484375,-11.921875,389263.0,1728493603605,1926
96.6796875,112.548828125,1077.63671875,28.953125,-28.75,-11.828125,389267.46,1728493603605,1926
95.0927734375,110.53466796875,1074.03564453125,30.546875,-28.28125,-12.1875,389271.92,1728493603606,1926
93.994140625,111.81640625,1067.81005859375,32.25,-27.828125,-12.578125,389276.38,1728493603606,1926
92.8955078125,111.2060546875,1063.720703125,33.546875,-27.625,-12.90625,389280.84,1728493603606,1926
91.73583984375,110.77880859375,1059.814453125,34.4375,-26.828125,-12.875,389285.3,1728493603606,1926
89.35546875,111.38916015625,1055.11474609375,34.78125,-26.59375,-12.765625,389289.76,1728493603607,1926
85.0830078125,110.3515625,1050.537109375,35.53125,-26.375,-12.546875,389294.22,1728493603607,1926
80.62744140625,109.55810546875,1041.68701171875,36.171875,-26.390625,-12.3125,389298.68,1728493603607,1926
75.37841796875,110.77880859375,1034.72900390625,36.265625,-27.0625,-12.1875,389303.14,1728493603607,1926
72.3876953125,111.4501953125,1027.587890625,35.828125,-27.3125,-11.859375,389307.6,1728493603608,1926
65.7958984375,112.3046875,1023.25439453125,35.09375,-28.03125,-11.328125,389312.06,1728493603608,1926
60.302734375,113.6474609375,1018.37158203125,34.046875,-28.625,-10.390625,389316.52,1728493603608,1926
60.4248046875,114.013671875,1014.83154296875,33.421875,-28.296875,-9.765625,389320.98,1728493603608,1926
61.82861328125,112.85400390625,1015.80810546875,32.03125,-27.9375,-9.609375,389325.44,1728493603609,1926
64.453125,111.99951171875,1020.01953125,30.953125,-27.21875,-9.34375,389329.9,1728493603609,1926
68.54248046875,114.68505859375,1023.92578125,30.34375,-26.796875,-9.203125,389334.36,1728493603609,1926
71.96044921875,117.37060546875,1029.84619140625,30.140625,-26.0625,-9.28125,389338.83,1728493603609,1926
73.18115234375,118.71337890625,1036.19384765625,29.84375,-25.75,-9.1875,389343.29,1728493603609,1926
73.974609375,121.09375,1038.51318359375,29.625,-25.640625,-8.578125,389347.75,1728493603610,1926
76.47705078125,122.00927734375,1039.12353515625,28.90625,-25.78125,-7.578125,389352.21,1728493603610,1926
76.72119140625,122.314453125,1040.10009765625,28.25,-25.75,-6.203125,389356.67,1728493603610,1926
81.54296875,123.779296875,1041.015625,28.171875,-25.28125,-4.765625,389361.13,1728493603610,1926
87.46337890625,124.51171875,1041.748046875,28.140625,-24.84375,-4.015625,389365.59,1728493603611,1926
85.51025390625,125.1220703125,1040.283203125,28.5625,-24.40625,-3.125,389370.05,1728493603611,1926
74.0966796875,130.43212890625,1038.87939453125,29.609375,-23.953125,-2.921875,389374.51,1728493603611,1926
66.162109375,133.85009765625,1036.1328125,29.984375,-24.234375,-3.34375,389378.97,1728493603611,1926
84.41162109375,128.23486328125,1035.888671875,30.609375,-23.9375,-2.859375,389383.43,1728493603612,1926
66.162109375,133.056640625,1038.6962890625,30.828125,-22.890625,-2.234375,389387.89,1728493603612,1926
55.11474609375,140.625,1039.55078125,31.59375,-22.859375,-4.4375,389392.35,1728493603612,1926
62.1337890625,134.1552734375,1038.9404296875,31.65625,-23.4375,-4.765625,389396.81,1728493603612,1926
58.65478515625,138.61083984375,1041.1376953125,31.046875,-23.484375,-5.25,389401.27,1728493603613,1926
75.0732421875,133.4228515625,1032.958984375,26.265625,-20.75,-6.484375,389464.0,1728493603830,1927
74.5849609375,137.02392578125,1031.8603515625,26.421875,-20.75,-6.6875,389468.46,1728493603830,1927
78.857421875,133.23974609375,1033.203125,26.3125,-20.515625,-6.796875,389472.92,1728493603830,1927
80.6884765625,130.67626953125,1034.11865234375,26.625,-20.4375,-6.828125,389477.38,1728493603831,1927
83.8623046875,130.7373046875,1036.1328125,26.921875,-20.109375,-6.140625,389481.84,1728493603831,1927
87.46337890625,134.6435546875,1038.0859375,27.75,-19.546875,-5.265625,389486.3,1728493603831,1927
91.6748046875,158.5693359375,1038.14697265625,27.234375,-19.71875,-6.03125,389490.76,1728493603831,1927
91.61376953125,174.1943359375,1040.71044921875,22.90625,-19.78125,-8.09375,389495.22,1728493603832,1927
77.1484375,130.18798828125,1056.396484375,26.59375,-19.078125,-6.296875,389499.68,1728493603832,1927
73.66943359375,151.2451171875,1055.5419921875,33.421875,-20.0625,-4.734375,389504.14,1728493603832,1927
86.12060546875,155.6396484375,1056.0302734375,36.421875,-20.484375,-5.625,389508.6,1728493603832,1927
90.4541015625,147.03369140625,1057.2509765625,38.140625,-20.265625,-5.71875,389513.06,1728493603833,1927
89.41650390625,145.5078125,1062.43896484375,38.953125,-20.3125,-5.53125,389517.52,1728493603833,1927
90.14892578125,147.64404296875,1062.5,40.109375,-20.859375,-5.515625,389521.98,1728493603833,1927
89.2333984375,151.2451171875,1060.1806640625,40.71875,-21.421875,-5.34375,389526.44,1728493603833,1927
86.3037109375,152.40478515625,1059.5703125,39.828125,-21.65625,-5.640625,389530.9,1728493603834,1927
84.89990234375,151.0009765625,1057.4951171875,38.140625,-22.109375,-5.890625,389535.36,1728493603834,1927
84.65576171875,150.2685546875,1053.7109375,36.390625,-22.09375,-5.765625,389539.83,1728493603834,1927
80.50537109375,148.37646484375,1051.69677734375,35.390625,-21.921875,-5.53125,389544.29,1728493603834,1927
85.14404296875,145.3857421875,1051.33056640625,34.171875,-21.828125,-5.34375,389548.75,1728493603835,1927
89.4775390625,148.3154296875,1051.1474609375,31.90625,-21.578125,-4.484375,389553.21,1728493603835,1927
89.35546875,169.5556640625,1048.15673828125,27.75,-21.125,-4.0625,389557.67,1728493603836,1927
89.599609375,153.3203125,1051.6357421875,20.765625,-20.765625,-3.515625,389562.13,1728493603836,1927
82.82470703125,119.44580078125,1061.4013671875,25.078125,-19.875,-2.6875,389566.59,1728493603836,1927
92.7734375,145.08056640625,1055.48095703125,27.96875,-20.03125,-2.265625,389571.05,1728493603836,1927
107.36083984375,152.9541015625,1047.05810546875,24.5,-19.640625,-2.921875,389575.51,1728493603836,1927
105.04150390625,144.83642578125,1051.8798828125,23.625,-19.390625,-3.96875,389579.97,1728493603837,1927
100.4638671875,148.01025390625,1053.77197265625,23.171875,-19.828125,-4.5625,389584.43,1728493603837,1927
103.21044921875,155.6396484375,1048.4619140625,19.875,-20.53125,-4.8125,389588.89,1728493603837,1927
99.12109375,154.47998046875,1046.7529296875,17.3125,-20.765625,-3.828125,389593.35,1728493603837,1927
80.9326171875,155.45654296875,1049.98779296875,16.953125,-21.859375,-3.84375,389597.81,1728493603837,1927
80.13916015625,165.0390625,1048.4619140625,17.1875,-23.265625,-3.578125,389602.27,1728493603837,1927
70.98388671875,188.90380859375,1045.2880859375,9.9375,-26.03125,5.28125,389665.0,1728493604055,1928
76.72119140625,187.43896484375,1046.0205078125,11.03125,-26.375,4.46875,389669.46,1728493604055,1928
82.09228515625,182.373046875,1045.22705078125,11.765625,-26.546875,4.078125,389673.92,1728493604056,1928
88.0126953125,177.06298828125,1046.38671875,12.90625,-26.921875,3.453125,389678.38,1728493604056,1928
93.20068359375,174.37744140625,1047.05810546875,14.6875,-26.96875,3.078125,389682.84,1728493604056,1928
93.1396484375,182.92236328125,1043.3349609375,16.0,-27.25,3.140625,389687.3,1728493604056,1928
81.35986328125,208.6181640625,1047.54638671875,15.5625,-28.484375,4.0,389691.76,1728493604057,1928
77.5146484375,137.939453125,1047.607421875,22.4375,-29.921875,8.859375,389696.22,1728493604057,1928
87.7685546875,175.1708984375,1025.2685546875,18.03125,-31.140625,6.765625,389700.68,1728493604057,1928
94.29931640625,166.259765625,1029.541015625,13.84375,-30.359375,5.6875,389705.14,1728493604057,1928
98.93798828125,156.73828125,1026.3671875,17.140625,-29.515625,4.625,389709.6,1728493604057,1928
94.66552734375,176.33056640625,1020.01953125,14.453125,-28.984375,5.28125,389714.06,1728493604057,1928
87.09716796875,144.8974609375,1016.6015625,12.453125,-29.703125,8.46875,389718.52,1728493604058,1928
93.26171875,120.30029296875,1013.18359375,15.625,-29.875,7.109375,389722.98,1728493604058,1928
109.9853515625,157.71484375,1011.71875,18.75,-27.765625,2.65625,389727.44,1728493604058,1928
122.0703125,157.5927734375,1015.93017578125,16.84375,-25.078125,0.46875,389731.9,1728493604058,1928
108.45947265625,162.353515625,1014.16015625,11.375,-24.71875,1.890625,389736.36,1728493604058,1928
103.3935546875,145.08056640625,1016.17431640625,8.328125,-25.546875,1.09375,389740.83,1728493604059,1928
100.76904296875,171.81396484375,1012.63427734375,6.375,-25.484375,1.984375,389745.29,1728493604059,1928
98.2666015625,135.92529296875,1022.3388671875,11.515625,-24.90625,3.03125,389749.75,1728493604059,1928
93.26171875,180.35888671875,1010.31494140625,9.015625,-26.46875,6.484375,389754.21,1728493604059,1928
96.13037109375,141.357421875,1014.16015625,7.90625,-27.015625,7.578125,389758.67,1728493604060,1928
97.65625,154.541015625,1017.333984375,12.671875,-26.265625,8.921875,389763.13,1728493604060,1928
